Folder: Hybrid-physics-ML-battery-modeling/Dataset/AANDCNet/cell2/cycle_14

Note: README.md
# Hybrid-physics-ML-battery-modeling

File: Test1535.csv
Test:,1535,,,,,,,
Start Time:,7/17/2021 1:40 PM,,,,,,,
End Time:,7/17/2021 3:45 PM,,,,,,,
Test,Rack,Shelf,Position,Voltage (V),Current (A),Discharge Capacity (mAh),TC_1 (C),
1535,SBT4050,1,5,4.14323,0,0,19.6,
1535,SBT4050,1,5,4.14351,0,0,19.7,
1535,SBT4050,1,5,4.14324,0,0,19.7,
1535,SBT4050,1,5,4.14338,0,0,19.7,
1535,SBT4050,1,5,4.14344,0,0,19.8,
1535,SBT4050,1,5,4.14353,0,0,19.9,
1535,SBT4050,1,5,4.14331,0,0,19.9,
1535,SBT4050,1,5,4.14347,0,0,20,
1535,SBT4050,1,5,4.143488,0,0,20,
1535,SBT4050,1,5,4.1432,0,0,20,
1535,SBT4050,1,5,4.201406,1.3715,0,20,
1535,SBT4050,1,5,4.2007,0.8061,0,20,
1535,SBT4050,1,5,4.20042,0.5877,0,19.9,
1535,SBT4050,1,5,4.20024,0.45719,0,20,
1535,SBT4050,1,5,4.20033,0.37293,0,20,
1535,SBT4050,1,5,4.20026,0.30695,0,20,
1535,SBT4050,1,5,4.20023,0.26244,0,20.1,
1535,SBT4050,1,5,4.20002,0.22466,0,20.1,
1535,SBT4050,1,5,4.20055,0.19562,0,20,
1535,SBT4050,1,5,4.200476,0.17468,0,20,
1535,SBT4050,1,5,4.2002,0.1533,0,19.9,
1535,SBT4050,1,5,4.20055,0.13717,0,20,
1535,SBT4050,1,5,4.200488,0.12288,0,19.9,
1535,SBT4050,1,5,4.20023,0.11177,0,20,
1535,SBT4050,1,5,4.20026,0.10162,0,20,
1535,SBT4050,1,5,4.19488,0,0,20,
1535,SBT4050,1,5,4.1936,0,0,20,
1535,SBT4050,1,5,4.19246,0,0,19.9,
1535,SBT4050,1,5,4.19202,0,0,19.9,
1535,SBT4050,1,5,4.19159,0,0,20,
1535,SBT4050,1,5,4.190594,0,0,20,
1535,SBT4050,1,5,4.19027,0,0,19.9,
1535,SBT4050,1,5,4.189812,0,0,19.9,
1535,SBT4050,1,5,4.18947,0,0,19.9,
1535,SBT4050,1,5,4.1891,0,0,19.9,
1535,SBT4050,1,5,4.18879,0,0,19.9,
1535,SBT4050,1,5,4.18858,0,0,19.9,
1535,SBT4050,1,5,4.1881,0,0,19.9,
1535,SBT4050,1,5,4.18801,0,0,20,
1535,SBT4050,1,5,4.18745,0,0,19.9,
1535,SBT4050,1,5,4.18729,0,0,19.8,
1535,SBT4050,1,5,4.18727,0,0,19.9,
1535,SBT4050,1,5,4.1867,0,0,19.9,
1535,SBT4050,1,5,4.1868,0,0,19.9,
1535,SBT4050,1,5,4.18632,0,0,19.9,
1535,SBT4050,1,5,4.18608,0,0,19.8,
1535,SBT4050,1,5,4.18613,0,0,19.8,
1535,SBT4050,1,5,4.18605,0,0,19.9,
1535,SBT4050,1,5,4.185746,0,0,19.9,
1535,SBT4050,1,5,4.18558,0,0,19.9,
1535,SBT4050,1,5,4.18541,0,0,19.9,
1535,SBT4050,1,5,4.18565,0,0,19.9,
1535,SBT4050,1,5,4.18535,0,0,20,
1535,SBT4050,1,5,4.18503,0,0,20,
1535,SBT4050,1,5,4.185124,0,0,20,
1535,SBT4050,1,5,4.1848,0,0,19.9,
1535,SBT4050,1,5,4.1846,0,0,19.9,
1535,SBT4050,1,5,4.18451,0,0,19.9,
1535,SBT4050,1,5,4.18464,0,0,19.9,
1535,SBT4050,1,5,4.18449,0,0,19.8,
1535,SBT4050,1,5,4.18418,0,0,19.9,
1535,SBT4050,1,5,4.18399,0,0,19.8,
1535,SBT4050,1,5,4.18371,0,0,19.8,
1535,SBT4050,1,5,4.18405,0,0,19.7,
1535,SBT4050,1,5,4.18381,0,0,19.7,
1535,SBT4050,1,5,4.18371,0,0,19.7,
1535,SBT4050,1,5,4.18387,0,0,19.7,
1535,SBT4050,1,5,4.1839,0,0,19.7,
1535,SBT4050,1,5,4.18356,0,0,19.7,
1535,SBT4050,1,5,4.183634,0,0,19.7,
1535,SBT4050,1,5,4.18349,0,0,19.7,
1535,SBT4050,1,5,4.183308,0,0,19.6,
1535,SBT4050,1,5,4.18363,0,0,19.6,
1535,SBT4050,1,5,4.183204,0,0,19.7,
1535,SBT4050,1,5,4.18283,0,0,19.7,
1535,SBT4050,1,5,4.1832,0,0,19.6,
1535,SBT4050,1,5,4.183148,0,0,19.5,
1535,SBT4050,1,5,4.18314,0,0,19.6,
1535,SBT4050,1,5,4.18324,0,0,19.5,
1535,SBT4050,1,5,4.182742,0,0,19.5,
1535,SBT4050,1,5,4.1828,0,0,19.5,
1535,SBT4050,1,5,4.18282,0,0,19.5,
1535,SBT4050,1,5,4.18255,0,0,19.4,
1535,SBT4050,1,5,4.18242,0,0,19.4,
1535,SBT4050,1,5,4.18243,0,0,19.4,
1535,SBT4050,1,5,4.18255,0,0,19.3,
1535,SBT4050,1,5,4.18254,0,0,19.4,
1535,SBT4050,1,5,4.18249,0,0,19.3,
1535,SBT4050,1,5,4.18198,0,0,19.2,
1535,SBT4050,1,5,4.18196,0,0,19.3,
1535,SBT4050,1,5,4.1821,0,0,19.3,
1535,SBT4050,1,5,4.18205,0,0,19.4,
1535,SBT4050,1,5,4.18202,0,0,19.2,
1535,SBT4050,1,5,4.18219,0,0,19.2,
1535,SBT4050,1,5,4.18221,0,0,19.3,
1535,SBT4050,1,5,4.18196,0,0,19.3,
1535,SBT4050,1,5,4.18195,0,0,19.3,
1535,SBT4050,1,5,4.18188,0,0,19.3,
1535,SBT4050,1,5,4.18186,0,0,19.4,
1535,SBT4050,1,5,4.181848,0,0,19.4,
1535,SBT4050,1,5,4.181748,0,0,19.4,
1535,SBT4050,1,5,4.18174,0,0,19.5,
1535,SBT4050,1,5,4.18174,0,0,19.4,
1535,SBT4050,1,5,4.18154,0,0,19.4,
1535,SBT4050,1,5,4.18177,0,0,19.4,
1535,SBT4050,1,5,4.18167,0,0,19.5,
1535,SBT4050,1,5,4.18142,0,0,19.4,
1535,SBT4050,1,5,4.1816,0,0,19.5,
1535,SBT4050,1,5,4.18154,0,0,19.5,
1535,SBT4050,1,5,4.1814,0,0,19.5,
1535,SBT4050,1,5,4.18135,0,0,19.5,
1535,SBT4050,1,5,4.18148,0,0,19.5,
1535,SBT4050,1,5,4.18132,0,0,19.5,
1535,SBT4050,1,5,4.18138,0,0,19.6,
1535,SBT4050,1,5,4.18098,0,0,19.7,
1535,SBT4050,1,5,4.181108,0,0,19.6,
1535,SBT4050,1,5,4.18095,0,0,19.6,
1535,SBT4050,1,5,4.181126,0,0,19.6,
1535,SBT4050,1,5,4.18087,0,0,19.6,
1535,SBT4050,1,5,4.18122,0,0,19.6,
1535,SBT4050,1,5,4.180782,0,0,19.7,
1535,SBT4050,1,5,4.18104,0,0,19.6,
1535,SBT4050,1,5,4.180772,0,0,19.5,
1535,SBT4050,1,5,4.18071,0,0,19.6,
1535,SBT4050,1,5,4.18082,0,0,19.6,
1535,SBT4050,1,5,4.1808,0,0,19.5,
1535,SBT4050,1,5,4.18081,0,0,19.6,
1535,SBT4050,1,5,4.18058,0,0,19.6,
1535,SBT4050,1,5,4.18049,0,0,19.6,
1535,SBT4050,1,5,4.18065,0,0,19.5,
1535,SBT4050,1,5,4.18067,0,0,19.6,
1535,SBT4050,1,5,4.18068,0,0,19.6,
1535,SBT4050,1,5,4.18058,0,0,19.6,
1535,SBT4050,1,5,4.18051,0,0,19.6,
1535,SBT4050,1,5,4.18025,0,0,19.6,
1535,SBT4050,1,5,4.1805,0,0,19.6,
1535,SBT4050,1,5,4.18041,0,0,19.6,
1535,SBT4050,1,5,4.18046,0,0,19.5,
1535,SBT4050,1,5,4.18025,0,0,19.6,
1535,SBT4050,1,5,4.18047,0,0,19.7,
1535,SBT4050,1,5,4.18018,0,0,19.6,
1535,SBT4050,1,5,4.19817,0.515,0.008,19.6,
1535,SBT4050,1,5,3.932756,-6.558,23.193,19.5,
1535,SBT4050,1,5,4.18354,3.8608,54.844,19.8,
1535,SBT4050,1,5,4.05935,1.1689,99.114,20.3,
1535,SBT4050,1,5,4.0305,2.666,149.758,20.6,
1535,SBT4050,1,5,4.061088,1.5648,172.54,20.9,
1535,SBT4050,1,5,4.03506,-0.8101,172.839,20.8,
1535,SBT4050,1,5,4.039412,1.0078,221.007,21.2,
1535,SBT4050,1,5,4.03423,-0.008,230.917,21.1,
1535,SBT4050,1,5,3.77587,-6.102,286.372,21.2,
1535,SBT4050,1,5,3.89861,-0.09199,346.324,22,
1535,SBT4050,1,5,3.98307,-0.069,346.532,21.9,
1535,SBT4050,1,5,3.77545,-5.913,389.343,21.8,
1535,SBT4050,1,5,3.93125,0.47796,417.835,21.8,
1535,SBT4050,1,5,3.87396,-0.7868,454.139,21.7,
1535,SBT4050,1,5,3.87372,-0.8339,480.412,21.8,
1535,SBT4050,1,5,3.92402,0.071,499.716,21.8,
1535,SBT4050,1,5,3.76461,-5.828,512.304,21.3,
1535,SBT4050,1,5,3.75606,-4.3138,552.343,21.2,
1535,SBT4050,1,5,3.897392,-0.019997,559.77,21.1,
1535,SBT4050,1,5,3.73115,-6.679,568.951,21.1,
1535,SBT4050,1,5,3.65852,-8.182,608.882,21.1,
1535,SBT4050,1,5,3.654668,-6.147,660.89,21.3,
1535,SBT4050,1,5,3.51811,-11.4,704.311,21.3,
1535,SBT4050,1,5,3.78278,0.23797,745.041,21.8,
1535,SBT4050,1,5,3.85037,-0.05399,745.292,21.8,
1535,SBT4050,1,5,3.8338,3.4729,798.366,21.9,
1535,SBT4050,1,5,3.83211,-0.12297,808.408,21.9,
1535,SBT4050,1,5,3.44726,-14.5,835.532,21.5,
1535,SBT4050,1,5,3.49079,-9.222,918.756,22.4,
1535,SBT4050,1,5,3.796312,-0.06898,927.383,22.6,
1535,SBT4050,1,5,3.56056,-7.1,961.584,22.4,
1535,SBT4050,1,5,3.68172,-1.389,1000.996,22.3,
1535,SBT4050,1,5,3.55376,-6.758,1030.867,22.2,
1535,SBT4050,1,5,3.62015,-3.5828,1062.272,22.1,
1535,SBT4050,1,5,3.70739,0.36004,1087.797,21.8,
1535,SBT4050,1,5,3.70167,-1.9627,1088.815,21.7,
1535,SBT4050,1,5,3.58053,-4.499,1128.564,21.6,
1535,SBT4050,1,5,3.70412,-0.07,1148.675,21.5,
1535,SBT4050,1,5,3.72288,-0.067,1149.503,21.3,
1535,SBT4050,1,5,3.692908,1.4011,1188.83,21.2,
1535,SBT4050,1,5,3.3872,-10.877,1230.453,21.3,
1535,SBT4050,1,5,3.49178,-7.84,1263.883,21.5,
1535,SBT4050,1,5,3.48636,-6.348,1320.306,21.9,
1535,SBT4050,1,5,3.671224,-0.105,1337.022,21.9,
1535,SBT4050,1,5,3.271572,-14.499,1370.372,21.6,
1535,SBT4050,1,5,3.60172,-0.833,1399.733,21.9,
1535,SBT4050,1,5,3.6602,-0.07801,1400.261,21.8,
1535,SBT4050,1,5,3.37857,-7.393,1482.042,22.1,
1535,SBT4050,1,5,3.681182,3.9997,1517.437,22.6,
1535,SBT4050,1,5,3.47652,-6.822,1521.039,22.4,
1535,SBT4050,1,5,3.4929,-2.603,1579.98,22.4,
1535,SBT4050,1,5,3.43869,-7.95,1593.566,22.1,
1535,SBT4050,1,5,3.42875,-5.32,1640.531,22.2,
1535,SBT4050,1,5,3.46921,-2.8702,1670.626,22.1,
1535,SBT4050,1,5,3.58481,-0.07,1677.529,21.9,
1535,SBT4050,1,5,3.44598,-3.9749,1706.941,21.7,
1535,SBT4050,1,5,3.59001,2.2496,1738.402,21.6,
1535,SBT4050,1,5,3.56488,-0.34297,1739.06,21.3,
1535,SBT4050,1,5,3.3535,-7.021,1768.061,21.1,
1535,SBT4050,1,5,3.60905,3.8006,1801.398,21.3,
1535,SBT4050,1,5,3.53501,1.7549,1850.725,21.7,
1535,SBT4050,1,5,3.55287,3.9997,1906.085,21.9,
1535,SBT4050,1,5,3.58137,2.6988,1924.271,22.4,
1535,SBT4050,1,5,3.4815,-2.3901,1925.501,21.9,
1535,SBT4050,1,5,3.558438,1.597,1976.031,22.3,
1535,SBT4050,1,5,3.53186,0.07398,1985.656,22.1,
1535,SBT4050,1,5,3.31991,-4.8125,2037.827,22,
1535,SBT4050,1,5,3.58865,3.9997,2069.761,22.7,
1535,SBT4050,1,5,3.52438,-0.06399,2069.829,22.5,
1535,SBT4050,1,5,3.28301,-6.119,2117.4,22.3,
1535,SBT4050,1,5,3.5946,4.0003,2131.994,22.3,
1535,SBT4050,1,5,3.59237,4.0003,2149.234,22.1,
1535,SBT4050,1,5,3.619776,3.8088,2151.586,21.8,
1535,SBT4050,1,5,3.53742,-0.13398,2153.422,21.5,
1535,SBT4050,1,5,3.39818,-4.2909,2161.465,21.2,
1535,SBT4050,1,5,3.338388,-4.0308,2200.957,21.3,
1535,SBT4050,1,5,3.48803,-0.029999,2206.537,21.3,
1535,SBT4050,1,5,3.49497,-0.016999,2206.848,20.9,
1535,SBT4050,1,5,3.497968,-0.036997,2207.136,20.9,
1535,SBT4050,1,5,3.5006,-0.030003,2207.416,20.6,
1535,SBT4050,1,5,3.50249,-0.028002,2207.698,20.4,
1535,SBT4050,1,5,3.503398,-0.034002,2207.992,20.4,
1535,SBT4050,1,5,3.504712,-0.021995,2208.279,20.4,
1535,SBT4050,1,5,3.505252,-0.030998,2208.559,20.3,
1535,SBT4050,1,5,3.50568,-0.035993,2208.822,20.3,
1535,SBT4050,1,5,3.506454,-0.019998,2209.043,20.2,
1535,SBT4050,1,5,3.50648,-0.036996,2209.267,20.1,
1535,SBT4050,1,5,3.507714,-0.012999,2209.502,20.1,
1535,SBT4050,1,5,3.507804,-0.020001,2209.725,20,
1535,SBT4050,1,5,3.508062,-0.024001,2209.945,20,
1535,SBT4050,1,5,3.5083,-0.024999,2210.159,20.1,
1535,SBT4050,1,5,3.50862,-0.022002,2210.399,20,
1535,SBT4050,1,5,3.50934,0,2210.503,20,
1535,SBT4050,1,5,3.50998,0,2210.503,20,
1535,SBT4050,1,5,3.5102,0,2210.503,20,
1535,SBT4050,1,5,3.51055,0,2210.503,20,
1535,SBT4050,1,5,3.511,0,2210.503,20,
1535,SBT4050,1,5,3.51122,0,2210.503,20,
1535,SBT4050,1,5,3.51153,0,2210.503,20,
1535,SBT4050,1,5,3.51166,0,2210.503,20,
1535,SBT4050,1,5,3.5119,0,2210.503,20,
1535,SBT4050,1,5,3.512218,0,2210.503,20.1,
1535,SBT4050,1,5,3.512658,-0.0001,2210.503,,