Folder: Hybrid-physics-ML-battery-modeling/Dataset/AANDCNet/cell2/cycle_13

Note: README.md
# Hybrid-physics-ML-battery-modeling

File: Test1527.csv
Test:,1527,,,,,,,
Start Time:,7/13/2021 10:10 PM,,,,,,,
End Time:,7/14/2021 6:01 PM,,,,,,,
Test,Rack,Shelf,Position,Voltage (V),Current (A),Discharge Capacity (mAh),TC_1 (C),
1527,SBT4050,1,5,3.51767,0,0,,
1527,SBT4050,1,5,3.518478,0,0,20.5,
1527,SBT4050,1,5,3.66121,3.9997,0,20.4,
1527,SBT4050,1,5,3.7065,4.0001,0,20.7,
1527,SBT4050,1,5,3.733184,3.9999,0,20.8,
1527,SBT4050,1,5,3.75451,4.0001,0,21,
1527,SBT4050,1,5,3.767864,4.0006,0,21.2,
1527,SBT4050,1,5,3.77748,3.9998,0,21.3,
1527,SBT4050,1,5,3.78735,3.9998,0,21.5,
1527,SBT4050,1,5,3.797526,3.9994,0,21.6,
1527,SBT4050,1,5,3.80864,4.0002,0,21.7,
1527,SBT4050,1,5,3.82068,4.0002,0,21.7,
1527,SBT4050,1,5,3.833126,4.0003,0,21.8,
1527,SBT4050,1,5,3.84602,3.9999,0,21.9,
1527,SBT4050,1,5,3.859316,4.0004,0,22,
1527,SBT4050,1,5,3.87293,3.9995,0,22.1,
1527,SBT4050,1,5,3.88698,3.9996,0,22.2,
1527,SBT4050,1,5,3.90188,4,0,22.2,
1527,SBT4050,1,5,3.91655,4.0001,0,22.3,
1527,SBT4050,1,5,3.93175,4,0,22.4,
1527,SBT4050,1,5,3.94789,4.0005,0,22.4,
1527,SBT4050,1,5,3.963912,4.0002,0,22.4,
1527,SBT4050,1,5,3.97996,3.9998,0,22.6,
1527,SBT4050,1,5,3.996074,4.0007,0,22.5,
1527,SBT4050,1,5,4.012074,3.9999,0,22.6,
1527,SBT4050,1,5,4.02812,3.9997,0,22.5,
1527,SBT4050,1,5,4.04412,3.9999,0,22.8,
1527,SBT4050,1,5,4.05992,4.0001,0,22.7,
1527,SBT4050,1,5,4.07576,4,0,22.7,
1527,SBT4050,1,5,4.092644,3.9998,0,22.7,
1527,SBT4050,1,5,4.10899,4,0,22.8,
1527,SBT4050,1,5,4.12831,3.9994,0,22.8,
1527,SBT4050,1,5,4.14787,4.0002,0,22.9,
1527,SBT4050,1,5,4.16795,4,0,22.9,
1527,SBT4050,1,5,4.18934,3.9997,0,22.8,
1527,SBT4050,1,5,4.20026,3.6904,0,22.8,
1527,SBT4050,1,5,4.20017,3.2641,0,22.8,
1527,SBT4050,1,5,4.200072,2.9246,0,22.8,
1527,SBT4050,1,5,4.200072,2.6486,0,22.6,
1527,SBT4050,1,5,4.20002,2.4189,0,22.6,
1527,SBT4050,1,5,4.20006,2.228,0,22.4,
1527,SBT4050,1,5,4.20023,2.0568,0,22.3,
1527,SBT4050,1,5,4.20014,1.9066,0,22.1,
1527,SBT4050,1,5,4.19998,1.7688,0,22,
1527,SBT4050,1,5,4.20005,1.6436,0,21.9,
1527,SBT4050,1,5,4.20022,1.5287,0,21.8,
1527,SBT4050,1,5,4.20022,1.4194,0,21.7,
1527,SBT4050,1,5,4.20001,1.3199,0,21.6,
1527,SBT4050,1,5,4.20026,1.2315,0,21.5,
1527,SBT4050,1,5,4.200072,1.1453,0,21.4,
1527,SBT4050,1,5,4.20001,1.0689,0,21.4,
1527,SBT4050,1,5,4.200072,0.9957,0,21.3,
1527,SBT4050,1,5,4.20019,0.9287,0,21.3,
1527,SBT4050,1,5,4.20019,0.869,0,21.2,
1527,SBT4050,1,5,4.20001,0.81,0,21.2,
1527,SBT4050,1,5,4.20018,0.7591,0,21.1,
1527,SBT4050,1,5,4.19996,0.7125,0,21.1,
1527,SBT4050,1,5,4.20022,0.6679,0,21,
1527,SBT4050,1,5,4.20006,0.626,0,21,
1527,SBT4050,1,5,4.19998,0.5857,0,20.9,
1527,SBT4050,1,5,4.20006,0.5544,0,20.9,
1527,SBT4050,1,5,4.200072,0.5179,0,20.9,
1527,SBT4050,1,5,4.20032,0.4907,0,20.9,
1527,SBT4050,1,5,4.19994,0.46597,0,20.8,
1527,SBT4050,1,5,4.19986,0.44124,0,20.8,
1527,SBT4050,1,5,4.200072,0.41201,0,20.8,
1527,SBT4050,1,5,4.200072,0.38995,0,20.8,
1527,SBT4050,1,5,4.20005,0.37034,0,20.8,
1527,SBT4050,1,5,4.2002,0.35488,0,20.8,
1527,SBT4050,1,5,4.20001,0.33201,0,20.8,
1527,SBT4050,1,5,4.20018,0.32122,0,20.7,
1527,SBT4050,1,5,4.20027,0.30477,0,20.7,
1527,SBT4050,1,5,4.200072,0.28448,0,20.7,
1527,SBT4050,1,5,4.2005,0.27416,0,20.7,
1527,SBT4050,1,5,4.20031,0.26305,0,20.6,
1527,SBT4050,1,5,4.2002,0.24917,0,20.7,
1527,SBT4050,1,5,4.19974,0.24152,0,20.6,
1527,SBT4050,1,5,4.2002,0.22907,0,20.6,
1527,SBT4050,1,5,4.19975,0.22073,0,20.6,
1527,SBT4050,1,5,4.20018,0.21154,0,20.6,
1527,SBT4050,1,5,4.19992,0.20071,0,20.6,
1527,SBT4050,1,5,4.200072,0.18995,0,20.6,
1527,SBT4050,1,5,4.20032,0.18479,0,20.6,
1527,SBT4050,1,5,4.19975,0.18259,0,20.6,
1527,SBT4050,1,5,4.20032,0.16764,0,20.6,
1527,SBT4050,1,5,4.19952,0.1657,0,20.6,
1527,SBT4050,1,5,4.19994,0.15239,0,20.6,
1527,SBT4050,1,5,4.20014,0.15121,0,20.6,
1527,SBT4050,1,5,4.20033,0.14733,0,20.5,
1527,SBT4050,1,5,4.20054,0.13853,0,20.5,
1527,SBT4050,1,5,4.200704,0.13749,0,20.5,
1527,SBT4050,1,5,4.20066,0.13117,0,20.6,
1527,SBT4050,1,5,4.20048,0.12864,0,20.6,
1527,SBT4050,1,5,4.20075,0.12481,0,20.5,
1527,SBT4050,1,5,4.20006,0.11693,0,20.5,
1527,SBT4050,1,5,4.19988,0.11353,0,20.6,
1527,SBT4050,1,5,4.2,0.11372,0,20.6,
1527,SBT4050,1,5,4.20017,0.11086,0,20.6,
1527,SBT4050,1,5,4.19987,0.10812,0,20.6,
1527,SBT4050,1,5,4.194826,0,0,20.6,
1527,SBT4050,1,5,4.1924,0,0,20.5,
1527,SBT4050,1,5,4.1918,0,0,20.5,
1527,SBT4050,1,5,4.19037,0,0,20.5,
1527,SBT4050,1,5,4.18914,0,0,20.5,
1527,SBT4050,1,5,4.18825,0,0,20.6,
1527,SBT4050,1,5,4.187798,0,0,20.5,
1527,SBT4050,1,5,4.18652,0,0,20.5,
1527,SBT4050,1,5,4.18594,0,0,20.5,
1527,SBT4050,1,5,4.184984,0,0,20.5,
1527,SBT4050,1,5,4.18444,0,0,20.5,
1527,SBT4050,1,5,4.18404,0,0,20.5,
1527,SBT4050,1,5,4.1832,0,0,20.5,
1527,SBT4050,1,5,4.182752,0,0,20.5,
1527,SBT4050,1,5,4.18207,0,0,20.5,
1527,SBT4050,1,5,4.18155,0,0,20.5,
1527,SBT4050,1,5,4.18093,0,0,20.5,
1527,SBT4050,1,5,4.18048,0,0,20.5,
1527,SBT4050,1,5,4.17995,0,0,20.5,
1527,SBT4050,1,5,4.17919,0,0,20.5,
1527,SBT4050,1,5,4.17894,0,0,20.5,
1527,SBT4050,1,5,4.17836,0,0,20.5,
1527,SBT4050,1,5,4.17805,0,0,20.5,
1527,SBT4050,1,5,4.17771,0,0,20.5,
1527,SBT4050,1,5,4.17714,0,0,20.5,
1527,SBT4050,1,5,4.17682,0,0,20.5,
1527,SBT4050,1,5,4.17645,0,0,20.6,
1527,SBT4050,1,5,4.17585,0,0,20.5,
1527,SBT4050,1,5,4.17572,0,0,20.6,
1527,SBT4050,1,5,4.175626,0,0,20.6,
1527,SBT4050,1,5,4.175186,0,0,20.5,
1527,SBT4050,1,5,4.17465,0,0,20.5,
1527,SBT4050,1,5,4.174144,0,0,20.5,
1527,SBT4050,1,5,4.17407,0,0,20.5,
1527,SBT4050,1,5,4.174004,0,0,20.6,
1527,SBT4050,1,5,4.17359,0,0,20.5,
1527,SBT4050,1,5,4.17311,0,0,20.5,
1527,SBT4050,1,5,4.17297,0,0,20.6,
1527,SBT4050,1,5,4.1725,0,0,20.6,
1527,SBT4050,1,5,4.17234,0,0,20.6,
1527,SBT4050,1,5,4.17202,0,0,20.5,
1527,SBT4050,1,5,4.17192,0,0,20.6,
1527,SBT4050,1,5,4.17169,0,0,20.5,
1527,SBT4050,1,5,4.17152,0,0,20.5,
1527,SBT4050,1,5,4.17111,0,0,20.6,
1527,SBT4050,1,5,4.17091,0,0,20.6,
1527,SBT4050,1,5,4.17072,0,0,20.6,
1527,SBT4050,1,5,4.17039,0,0,20.5,
1527,SBT4050,1,5,4.17014,0,0,20.6,
1527,SBT4050,1,5,4.16978,0,0,20.5,
1527,SBT4050,1,5,4.16967,0,0,20.6,
1527,SBT4050,1,5,4.16961,0,0,20.6,
1527,SBT4050,1,5,4.16941,0,0,20.6,
1527,SBT4050,1,5,4.16932,0,0,20.6,
1527,SBT4050,1,5,4.1688,0,0,20.6,
1527,SBT4050,1,5,4.1687,0,0,20.6,
1527,SBT4050,1,5,4.168706,0,0,20.6,
1527,SBT4050,1,5,4.16824,0,0,20.6,
1527,SBT4050,1,5,4.16828,0,0,20.6,
1527,SBT4050,1,5,4.16818,0,0,20.6,
1527,SBT4050,1,5,4.16811,0,0,20.6,
1527,SBT4050,1,5,4.16777,0,0,20.6,
1527,SBT4050,1,5,4.16771,0,0,20.6,
1527,SBT4050,1,5,4.16725,0,0,20.6,
1527,SBT4050,1,5,4.16696,0,0,20.6,
1527,SBT4050,1,5,4.167,0,0,20.6,
1527,SBT4050,1,5,4.16695,0,0,20.6,
1527,SBT4050,1,5,4.16674,0,0,20.6,
1527,SBT4050,1,5,4.16655,0,0,20.6,
1527,SBT4050,1,5,4.16622,0,0,20.6,
1527,SBT4050,1,5,4.16615,0,0,20.6,
1527,SBT4050,1,5,4.16579,0,0,20.6,
1527,SBT4050,1,5,4.16589,0,0,20.7,
1527,SBT4050,1,5,4.165734,0,0,20.6,
1527,SBT4050,1,5,4.16557,0,0,20.6,
1527,SBT4050,1,5,4.16557,0,0,20.6,
1527,SBT4050,1,5,4.16524,0,0,20.6,
1527,SBT4050,1,5,4.16551,0,0,20.6,
1527,SBT4050,1,5,4.16512,0,0,20.6,
1527,SBT4050,1,5,4.16482,0,0,20.6,
1527,SBT4050,1,5,4.164702,0,0,20.5,
1527,SBT4050,1,5,4.16463,0,0,20.5,
1527,SBT4050,1,5,4.16447,0,0,20.6,
1527,SBT4050,1,5,4.1648,0,0,20.6,
1527,SBT4050,1,5,4.1645,0,0,20.5,
1527,SBT4050,1,5,4.1641,0,0,20.6,
1527,SBT4050,1,5,4.16406,0,0,20.5,
1527,SBT4050,1,5,4.163988,0,0,20.6,
1527,SBT4050,1,5,4.16393,0,0,20.5,
1527,SBT4050,1,5,4.16371,0,0,20.5,
1527,SBT4050,1,5,4.16368,0,0,20.5,
1527,SBT4050,1,5,4.16373,0,0,20.5,
1527,SBT4050,1,5,4.16363,0,0,20.5,
1527,SBT4050,1,5,4.163172,0,0,20.5,
1527,SBT4050,1,5,4.1633,0,0,20.5,
1527,SBT4050,1,5,4.16312,0,0,20.5,
1527,SBT4050,1,5,4.16317,0,0,20.5,
1527,SBT4050,1,5,4.16291,0,0,20.4,
1527,SBT4050,1,5,4.16277,0,0,20.5,
1527,SBT4050,1,5,4.16273,0,0,20.5,
1527,SBT4050,1,5,3.783,-9.999,59.56,20.8,
1527,SBT4050,1,5,3.698426,-9.999,159.555,22,
1527,SBT4050,1,5,3.654408,-10,259.549,23,
1527,SBT4050,1,5,3.61903,-10,359.543,24,
1527,SBT4050,1,5,3.58474,-10,459.538,24.7,
1527,SBT4050,1,5,3.5503,-10.001,559.532,25.6,
1527,SBT4050,1,5,3.51585,-10,659.527,26.1,
1527,SBT4050,1,5,3.481002,-10,759.521,26.7,
1527,SBT4050,1,5,3.44602,-9.999,859.515,26.8,
1527,SBT4050,1,5,3.4122,-10,959.509,27.2,
1527,SBT4050,1,5,3.37992,-10.001,1059.503,27.6,
1527,SBT4050,1,5,3.34883,-10,1159.497,27.9,
1527,SBT4050,1,5,3.31883,-10.001,1259.491,28.1,
1527,SBT4050,1,5,3.28784,-9.998,1359.485,28.1,
1527,SBT4050,1,5,3.255685,-9.999,1459.479,28.4,
1527,SBT4050,1,5,3.22103,-10.001,1559.473,28.6,
1527,SBT4050,1,5,3.18338,-9.999,1659.467,28.6,
1527,SBT4050,1,5,3.14036,-9.999,1759.462,28.8,
1527,SBT4050,1,5,3.08813,-10,1859.457,29.3,
1527,SBT4050,1,5,3.01971,-10.001,1959.452,29.7,
1527,SBT4050,1,5,2.91559,-9.998,2059.446,30.1,
1527,SBT4050,1,5,2.741033,-10,2159.44,30.6,
1527,SBT4050,1,5,2.96933,0,2241.739,31.5,
1527,SBT4050,1,5,3.08388,0,2241.739,30.3,
1527,SBT4050,1,5,3.10477,0,2241.739,28.7,
1527,SBT4050,1,5,3.115371,0,2241.739,26.9,
1527,SBT4050,1,5,3.12219,0,2241.739,25.8,
1527,SBT4050,1,5,3.12718,0,2241.739,24.8,
1527,SBT4050,1,5,3.131069,0,2241.739,24,
1527,SBT4050,1,5,3.134025,0,2241.739,23.4,
1527,SBT4050,1,5,3.13636,0,2241.739,22.9,
1527,SBT4050,1,5,3.13862,0,2241.739,22.5,
1527,SBT4050,1,5,3.14068,0,2241.739,22.2,
1527,SBT4050,1,5,3.14232,0,2241.739,21.8,
1527,SBT4050,1,5,3.143818,0,2241.739,21.5,
1527,SBT4050,1,5,3.145224,0,2241.739,21.4,
1527,SBT4050,1,5,3.14667,0,2241.739,21.2,
1527,SBT4050,1,5,3.14778,0,2241.739,21.1,
1527,SBT4050,1,5,3.14853,0,2241.739,21,
1527,SBT4050,1,5,3.14991,0,2241.739,20.9,
1527,SBT4050,1,5,3.15091,0,2241.739,20.9,
1527,SBT4050,1,5,3.15189,0,2241.739,20.8,
1527,SBT4050,1,5,3.15288,0,2241.739,20.7,
1527,SBT4050,1,5,3.15393,0,2241.739,20.6,
1527,SBT4050,1,5,3.15444,0,2241.739,20.6,
1527,SBT4050,1,5,3.15497,0,2241.739,20.6,
1527,SBT4050,1,5,3.15558,0,2241.739,20.6,
1527,SBT4050,1,5,3.351165,3.9997,2241.739,20.6,
1527,SBT4050,1,5,3.51075,3.9995,2241.739,20.6,
1527,SBT4050,1,5,3.578534,4.0002,2241.739,20.8,
1527,SBT4050,1,5,3.60959,3.9998,2241.739,21.1,
1527,SBT4050,1,5,3.62382,4.0001,2241.739,21.3,
1527,SBT4050,1,5,3.6387,4.0002,2241.739,21.5,
1527,SBT4050,1,5,3.65389,4.0005,2241.739,21.8,
1527,SBT4050,1,5,3.668488,4,2241.739,22,
1527,SBT4050,1,5,3.682478,4.0002,2241.739,22,
1527,SBT4050,1,5,3.50379,0,2241.739,,