Folder: Hybrid-physics-ML-battery-modeling/Dataset/AANDCNet/cell2/cycle_28

Note: README.md
# Hybrid-physics-ML-battery-modeling

File: Test1573.csv
Test:,1573,,,,,,,
Start Time:,8/9/2021 9:39 PM,,,,,,,
End Time:,8/10/2021 9:56 PM,,,,,,,
Test,Rack,Shelf,Position,Voltage (V),Current (A),Discharge Capacity (mAh),TC_1 (C),
1573,SBT4050,1,5,2.75178,0,0,20,
1573,SBT4050,1,5,3.68931,4.0004,0,21.9,
1573,SBT4050,1,5,3.81825,4,0,22.1,
1573,SBT4050,1,5,3.96217,3.9996,0,22.6,
1573,SBT4050,1,5,4.12023,4.0002,0,22.8,
1573,SBT4050,1,5,4.20032,2.2334,0,22.3,
1573,SBT4050,1,5,4.20009,1.1029,0,21.1,
1573,SBT4050,1,5,4.20012,0.6425,0,20.6,
1573,SBT4050,1,5,4.20023,0.41242,0,20.4,
1573,SBT4050,1,5,4.20006,0.28716,0,20.3,
1573,SBT4050,1,5,4.199862,0.20804,0,20.2,
1573,SBT4050,1,5,4.20015,0.1589,0,20.2,
1573,SBT4050,1,5,4.19981,0.12559,0,20.2,
1573,SBT4050,1,5,4.20001,0.10266,0,20.3,
1573,SBT4050,1,5,4.18405,0,0,20.3,
1573,SBT4050,1,5,4.176944,0,0,20.3,
1573,SBT4050,1,5,4.17154,0,0,20.3,
1573,SBT4050,1,5,4.16728,0,0,20.3,
1573,SBT4050,1,5,4.164,0,0,20.3,
1573,SBT4050,1,5,4.16118,0,0,20.3,
1573,SBT4050,1,5,4.15877,0,0,20.3,
1573,SBT4050,1,5,4.15649,0,0,20.3,
1573,SBT4050,1,5,4.15497,0,0,20.3,
1573,SBT4050,1,5,4.153374,0,0,20.3,
1573,SBT4050,1,5,3.39788,-9.999,788.008,27.6,
1573,SBT4050,1,5,3.01807,-10.001,1776.845,30.2,
1573,SBT4050,1,5,3.16027,0,2124.109,24,
1573,SBT4050,1,5,3.176546,0,2124.109,20.8,
1573,SBT4050,1,5,3.5567,3.9999,2124.109,20.4,
1573,SBT4050,1,5,3.752552,3.9998,2124.109,22,
1573,SBT4050,1,5,3.87642,3.9993,2124.109,22.3,
1573,SBT4050,1,5,4.03817,4.0003,2124.109,22.7,
1573,SBT4050,1,5,4.200252,3.458,2124.109,22.9,
1573,SBT4050,1,5,4.19993,1.4401,2124.109,21.5,
1573,SBT4050,1,5,4.199966,0.7772,2124.109,20.7,
1573,SBT4050,1,5,4.199966,0.475,2124.109,20.4,
1573,SBT4050,1,5,4.19981,0.317,2124.109,20.3,
1573,SBT4050,1,5,4.19985,0.22597,2124.109,20.3,
1573,SBT4050,1,5,4.20012,0.16788,2124.109,20.2,
1573,SBT4050,1,5,4.20009,0.1297,2124.109,20.2,
1573,SBT4050,1,5,4.200252,0.10585,2124.109,20.2,
1573,SBT4050,1,5,4.18559,0,2124.109,20.2,
1573,SBT4050,1,5,4.17794,0,2124.109,20.2,
1573,SBT4050,1,5,4.1725,0,2124.109,20.2,
1573,SBT4050,1,5,4.16838,0,2124.109,20.2,
1573,SBT4050,1,5,4.16482,0,2124.109,20.3,
1573,SBT4050,1,5,4.16219,0,2124.109,20.3,
1573,SBT4050,1,5,4.15939,0,2124.109,20.3,
1573,SBT4050,1,5,4.15715,0,2124.109,20.3,
1573,SBT4050,1,5,4.155394,0,2124.109,20.3,
1573,SBT4050,1,5,4.15335,0,2124.109,20.3,
1573,SBT4050,1,5,3.27109,-15.001,3020.669,32.8,
1573,SBT4050,1,5,3.15558,0,4238.458,35.1,
1573,SBT4050,1,5,3.19544,0,4238.458,22.3,
1573,SBT4050,1,5,3.203991,0,4238.458,20.6,
1573,SBT4050,1,5,3.69121,4.0001,4238.458,21.7,
1573,SBT4050,1,5,3.81481,4,4238.458,22.2,
1573,SBT4050,1,5,3.96464,3.9997,4238.458,22.7,
1573,SBT4050,1,5,4.13319,3.9998,4238.458,23,
1573,SBT4050,1,5,4.19999,2.0207,4238.458,22.3,
1573,SBT4050,1,5,4.20016,1.0016,4238.458,21.1,
1573,SBT4050,1,5,4.20019,0.5826,4238.458,20.7,
1573,SBT4050,1,5,4.19999,0.3759,4238.458,20.5,
1573,SBT4050,1,5,4.20005,0.25892,4238.458,20.4,
1573,SBT4050,1,5,4.2002,0.19092,4238.458,20.4,
1573,SBT4050,1,5,4.20011,0.14584,4238.458,20.4,
1573,SBT4050,1,5,4.20003,0.11547,4238.458,20.3,
1573,SBT4050,1,5,4.19109,0,4238.458,20.4,
1573,SBT4050,1,5,4.181244,0,4238.458,20.3,
1573,SBT4050,1,5,4.1751,0,4238.458,20.3,
1573,SBT4050,1,5,4.17024,0,4238.458,20.3,
1573,SBT4050,1,5,4.16655,0,4238.458,20.3,
1573,SBT4050,1,5,4.16312,0,4238.458,20.3,
1573,SBT4050,1,5,4.16053,0,4238.458,20.3,
1573,SBT4050,1,5,4.15851,0,4238.458,20.3,
1573,SBT4050,1,5,4.15635,0,4238.458,20.3,
1573,SBT4050,1,5,4.15471,0,4238.458,20.4,
1573,SBT4050,1,5,3.55203,-12.499,4412.42,22.7,
1573,SBT4050,1,5,3.16261,-12.5,5648.478,32.2,
1573,SBT4050,1,5,3.16533,0,6351.832,27.8,
1573,SBT4050,1,5,3.187764,0,6351.832,21.3,
1573,SBT4050,1,5,3.1959,0,6351.832,20.5,
1573,SBT4050,1,5,3.725064,4,6351.832,22,
1573,SBT4050,1,5,3.84873,4.0001,6351.832,22.3,
1573,SBT4050,1,5,4.00583,3.9998,6351.832,22.8,
1573,SBT4050,1,5,4.18276,3.9998,6351.832,23.1,
1573,SBT4050,1,5,4.20003,1.6472,6351.832,21.9,
1573,SBT4050,1,5,4.20017,0.8585,6351.832,21,
1573,SBT4050,1,5,4.2,0.5151,6351.832,20.6,
1573,SBT4050,1,5,4.20006,0.33919,6351.832,20.5,
1573,SBT4050,1,5,4.20006,0.23853,6351.832,20.4,
1573,SBT4050,1,5,4.20006,0.17728,6351.832,20.4,
1573,SBT4050,1,5,4.20021,0.13743,6351.832,20.4,
1573,SBT4050,1,5,4.20008,0.11048,6351.832,20.4,
1573,SBT4050,1,5,4.186914,0,6351.832,20.4,
1573,SBT4050,1,5,4.17867,0,6351.832,20.4,
1573,SBT4050,1,5,4.17326,0,6351.832,20.4,
1573,SBT4050,1,5,4.16866,0,6351.832,20.4,
1573,SBT4050,1,5,4.16515,0,6351.832,20.4,
1573,SBT4050,1,5,4.16204,0,6351.832,20.4,
1573,SBT4050,1,5,4.15943,0,6351.832,20.4,
1573,SBT4050,1,5,4.15715,0,6351.832,20.4,
1573,SBT4050,1,5,4.15533,0,6351.832,20.4,
1573,SBT4050,1,5,4.153564,0,6351.832,20.4,
1573,SBT4050,1,5,3.626362,-7.501,6680.488,23.4,
1573,SBT4050,1,5,3.37029,-7.499,7422.103,25.9,
1573,SBT4050,1,5,3.02716,-7.499,8163.72,27.4,
1573,SBT4050,1,5,3.14205,0,8469.053,23.5,
1573,SBT4050,1,5,3.69347,4.0001,8469.053,22,
1573,SBT4050,1,5,3.82121,4,8469.053,22.2,
1573,SBT4050,1,5,3.97472,4,8469.053,22.6,
1573,SBT4050,1,5,4.14779,4.0004,8469.053,22.9,
1573,SBT4050,1,5,4.20039,1.8809,8469.053,22.1,
1573,SBT4050,1,5,4.20016,0.9461,8469.053,21,
1573,SBT4050,1,5,4.20011,0.5583,8469.053,20.7,
1573,SBT4050,1,5,4.20015,0.36175,8469.053,20.5,
1573,SBT4050,1,5,4.20005,0.25214,8469.053,20.5,
1573,SBT4050,1,5,4.20003,0.18604,8469.053,20.5,
1573,SBT4050,1,5,4.20013,0.14309,8469.053,20.5,
1573,SBT4050,1,5,4.199932,0.11348,8469.053,20.5,
1573,SBT4050,1,5,4.1892,0,8469.053,20.4,
1573,SBT4050,1,5,4.18026,0,8469.053,20.4,
1573,SBT4050,1,5,4.17422,0,8469.053,20.5,
1573,SBT4050,1,5,4.16998,0,8469.053,20.4,
1573,SBT4050,1,5,4.16575,0,8469.053,20.3,
1573,SBT4050,1,5,4.1628,0,8469.053,20.3,
1573,SBT4050,1,5,4.16036,0,8469.053,20.3,
1573,SBT4050,1,5,4.15789,0,8469.053,20.3,
1573,SBT4050,1,5,4.15618,0,8469.053,20.4,
1573,SBT4050,1,5,4.15415,0,8469.053,20.4,
1573,SBT4050,1,5,3.81243,-4.999,8605.076,21.3,
1573,SBT4050,1,5,3.59287,-4.999,9099.47,23.2,
1573,SBT4050,1,5,3.424636,-5,9593.861,23.4,
1573,SBT4050,1,5,3.23866,-4.999,10088.249,23.8,
1573,SBT4050,1,5,2.55294,-5,10582.638,26.7,
1573,SBT4050,1,5,3.52443,4.0001,10596.234,21.4,
1573,SBT4050,1,5,3.74685,4.0003,10596.234,22.1,
1573,SBT4050,1,5,3.87508,3.9998,10596.234,22,
1573,SBT4050,1,5,4.03935,4,10596.234,22.2,
1573,SBT4050,1,5,4.200116,3.3773,10596.234,22,
1573,SBT4050,1,5,4.20002,1.3965,10596.234,20.4,
1573,SBT4050,1,5,4.200104,0.764,10596.234,19.5,
1573,SBT4050,1,5,4.200104,0.475,10596.234,19.2,
1573,SBT4050,1,5,4.200128,0.32102,10596.234,19.3,
1573,SBT4050,1,5,4.20014,0.2323,10596.234,19.4,
1573,SBT4050,1,5,4.20007,0.17739,10596.234,19.5,
1573,SBT4050,1,5,4.20002,0.13801,10596.234,19.5,
1573,SBT4050,1,5,4.19989,0.11189,10596.234,19.5,
1573,SBT4050,1,5,4.187938,0,10596.234,19.5,
1573,SBT4050,1,5,4.17914,0,10596.234,19.6,
1573,SBT4050,1,5,4.17346,0,10596.234,19.6,
1573,SBT4050,1,5,4.16864,0,10596.234,19.6,
1573,SBT4050,1,5,4.16468,0,10596.234,19.5,
1573,SBT4050,1,5,4.16177,0,10596.234,19.6,
1573,SBT4050,1,5,4.159068,0,10596.234,19.6,
1573,SBT4050,1,5,4.15691,0,10596.234,19.6,
1573,SBT4050,1,5,4.15497,0,10596.234,19.5,
1573,SBT4050,1,5,4.153124,0,10596.234,19.5,
1573,SBT4050,1,5,3.94499,-2.5,10680.059,19.7,
1573,SBT4050,1,5,3.80778,-2.4998,10927.276,20.4,
1573,SBT4050,1,5,3.70884,-2.5,11174.493,20.5,
1573,SBT4050,1,5,3.61768,-2.5001,11421.711,20.5,
1573,SBT4050,1,5,3.5365,-2.4998,11668.928,20.4,
1573,SBT4050,1,5,3.46543,-2.4996,11916.145,20.4,
1573,SBT4050,1,5,3.380604,-2.5002,12163.363,20.7,
1573,SBT4050,1,5,3.22765,-2.5001,12410.58,21.1,
1573,SBT4050,1,5,2.81201,-2.4997,12657.796,22.1,
1573,SBT4050,1,5,3.03791,0,12739.844,20.6,
1573,SBT4050,1,5,3.699586,4.0002,12739.844,21.4,
1573,SBT4050,1,5,3.82819,4.0003,12739.844,21.7,
1573,SBT4050,1,5,3.98065,3.9998,12739.844,22.1,
1573,SBT4050,1,5,4.1526,3.9995,12739.844,22.3,
1573,SBT4050,1,5,4.200092,1.8591,12739.844,21.5,
1573,SBT4050,1,5,4.20013,0.9483,12739.844,20.5,
1573,SBT4050,1,5,4.20015,0.5639,12739.844,20.2,
1573,SBT4050,1,5,4.200402,0.36472,12739.844,19.9,
1573,SBT4050,1,5,4.20004,0.25522,12739.844,19.9,
1573,SBT4050,1,5,4.2,0.19005,12739.844,19.8,
1573,SBT4050,1,5,4.20003,0.14399,12739.844,19.8,
1573,SBT4050,1,5,4.19989,0.11654,12739.844,19.7,
1573,SBT4050,1,5,4.18974,0,12739.844,19.7,
1573,SBT4050,1,5,4.1801,0,12739.844,19.7,
1573,SBT4050,1,5,4.17402,0,12739.844,19.7,
1573,SBT4050,1,5,4.16914,0,12739.844,19.7,
1573,SBT4050,1,5,4.16532,0,12739.844,19.8,
1573,SBT4050,1,5,4.16231,0,12739.844,19.8,
1573,SBT4050,1,5,4.15949,0,12739.844,19.8,
1573,SBT4050,1,5,4.15741,0,12739.844,19.8,
1573,SBT4050,1,5,4.15527,0,12739.844,19.7,
1573,SBT4050,1,5,4.15341,0,12739.844,19.4,
1573,SBT4050,1,5,3.871244,-5.002,12800.024,19.7,
1573,SBT4050,1,5,3.96179,4.0002,13191.783,21.8,
1573,SBT4050,1,5,3.47096,-9.25,13520.501,21.5,
1573,SBT4050,1,5,3.44525,-4.4201,13942.266,21.7,
1573,SBT4050,1,5,3.55708,0.483,14256.593,21.7,
1573,SBT4050,1,5,3.47657,-0.046,14594.197,22.7,
1573,SBT4050,1,5,3.52974,0.39402,14791.304,21.2,
1573,SBT4050,1,5,3.46071,-0.227,14950.12,21,
1573,SBT4050,1,5,3.471734,-0.034995,15010.891,20.3,
1573,SBT4050,1,5,3.470562,-0.042003,15014.85,20,
1573,SBT4050,1,5,3.47386,0,15016.93,20,
1573,SBT4050,1,5,3.7623,3.9994,15016.93,20.9,
1573,SBT4050,1,5,3.90022,3.9999,15016.93,21.7,
1573,SBT4050,1,5,4.07492,3.9996,15016.93,22.2,
1573,SBT4050,1,5,4.2003,2.6611,15016.93,22.1,
1573,SBT4050,1,5,4.20019,1.1967,15016.93,20.8,
1573,SBT4050,1,5,4.20011,0.6735,15016.93,20.2,
1573,SBT4050,1,5,4.20014,0.42739,15016.93,20,
1573,SBT4050,1,5,4.19995,0.29263,15016.93,20,
1573,SBT4050,1,5,4.200054,0.2113,15016.93,19.9,
1573,SBT4050,1,5,4.19999,0.16085,15016.93,19.9,
1573,SBT4050,1,5,4.200042,0.12695,15016.93,19.9,
1573,SBT4050,1,5,4.20002,0.10317,15016.93,19.9,
1573,SBT4050,1,5,4.183788,0,15016.93,19.9,
1573,SBT4050,1,5,4.176326,0,15016.93,20,
1573,SBT4050,1,5,4.17125,0,15016.93,20,
1573,SBT4050,1,5,4.167,0,15016.93,20,
1573,SBT4050,1,5,4.16333,0,15016.93,20.1,
1573,SBT4050,1,5,4.159474,0,15016.93,20.3,
1573,SBT4050,1,5,4.15802,0,15016.93,20.3,
1573,SBT4050,1,5,4.15563,0,15016.93,20.4,
1573,SBT4050,1,5,4.15357,0,15016.93,20.5,
1573,SBT4050,1,5,4.15186,0,15016.93,20.5,
1573,SBT4050,1,5,3.80055,-3.8517,15304.041,22.6,
1573,SBT4050,1,5,3.56833,-9.523,15684.524,23,
1573,SBT4050,1,5,3.91839,1E-06,15705.942,,

File: Test1581.csv
Test:,1581,,,,,,,
Start Time:,8/11/2021 4:04 PM,,,,,,,
End Time:,8/12/2021 12:42 AM,,,,,,,
Test,Rack,Shelf,Position,Voltage (V),Current (A),Discharge Capacity (mAh),TC_1 (C),
1581,SBT4050,1,5,4.176316,0,0,19.7,
1581,SBT4050,1,5,4.20029,0.36199,0,19.6,
1581,SBT4050,1,5,4.20032,0.26383,0,19.5,
1581,SBT4050,1,5,4.19988,0.22155,0,19.4,
1581,SBT4050,1,5,4.20022,0.19345,0,19.4,
1581,SBT4050,1,5,4.20026,0.17048,0,19.2,
1581,SBT4050,1,5,4.200092,0.15303,0,19.3,
1581,SBT4050,1,5,4.20003,0.13821,0,19.2,
1581,SBT4050,1,5,4.20015,0.12427,0,19.1,
1581,SBT4050,1,5,4.20001,0.11412,0,19,
1581,SBT4050,1,5,4.20006,0.10468,0,19,
1581,SBT4050,1,5,4.19218,0,0,19.1,
1581,SBT4050,1,5,4.187084,0,0,19.1,
1581,SBT4050,1,5,4.18343,0,0,19.2,
1581,SBT4050,1,5,4.18024,0,0,19.3,
1581,SBT4050,1,5,4.17776,0,0,19.3,
1581,SBT4050,1,5,4.17524,0,0,19.3,
1581,SBT4050,1,5,4.17327,0,0,19.3,
1581,SBT4050,1,5,4.1714,0,0,19.4,
1581,SBT4050,1,5,4.16926,0,0,19.4,
1581,SBT4050,1,5,4.16795,0,0,19.5,
1581,SBT4050,1,5,4.16638,0,0,19.5,
1581,SBT4050,1,5,4.16512,0,0,19.5,
1581,SBT4050,1,5,4.16375,0,0,19.6,
1581,SBT4050,1,5,4.16258,0,0,19.6,
1581,SBT4050,1,5,4.1614,0,0,19.6,
1581,SBT4050,1,5,4.16062,0,0,19.6,
1581,SBT4050,1,5,4.159194,0,0,19.5,
1581,SBT4050,1,5,4.15833,0,0,19.7,
1581,SBT4050,1,5,4.15731,0,0,19.7,
1581,SBT4050,1,5,4.15656,0,0,19.6,
1581,SBT4050,1,5,4.15596,0,0,19.7,
1581,SBT4050,1,5,4.15496,0,0,19.7,
1581,SBT4050,1,5,4.15413,0,0,19.7,
1581,SBT4050,1,5,4.153274,0,0,19.7,
1581,SBT4050,1,5,4.15297,0,0,19.7,
1581,SBT4050,1,5,4.1523,0,0,19.8,
1581,SBT4050,1,5,4.15151,0,0,19.8,
1581,SBT4050,1,5,4.07174,-0.017992,125.135,21.4,
1581,SBT4050,1,5,3.78855,-3.9601,293.936,22,
1581,SBT4050,1,5,3.636372,-5.434,503.851,22.7,
1581,SBT4050,1,5,3.67398,-4.926,607.172,22.4,
1581,SBT4050,1,5,3.71493,-0.602,741.548,22.6,
1581,SBT4050,1,5,3.53325,-6.096,894.446,22.9,
1581,SBT4050,1,5,3.78825,1.7949,972.653,21.9,
1581,SBT4050,1,5,3.896792,4.0004,985.053,21,
1581,SBT4050,1,5,3.54409,-6.156,1069.172,21.3,
1581,SBT4050,1,5,3.665588,-1.1169,1162.126,21.6,
1581,SBT4050,1,5,3.66124,-2.0837,1190.281,20.9,
1581,SBT4050,1,5,3.78124,1.389,1221.592,20.5,
1581,SBT4050,1,5,3.75372,-0.023999,1259.232,20.7,
1581,SBT4050,1,5,3.74217,4.0004,1418.159,21.9,
1581,SBT4050,1,5,3.49164,-3.3459,1565.604,22.1,
1581,SBT4050,1,5,3.31341,-6.65,1766.125,22.7,
1581,SBT4050,1,5,3.49759,-1.9648,1879.471,22.3,
1581,SBT4050,1,5,3.40906,-4.6338,1983.937,22.4,
1581,SBT4050,1,5,3.20401,-8.3,2152.358,23.5,
1581,SBT4050,1,5,3.45138,1.4338,2262.869,22.5,
1581,SBT4050,1,5,3.46749,-0.44902,2277.46,21.3,
1581,SBT4050,1,5,3.48207,-0.046003,2348.225,21.7,
1581,SBT4050,1,5,3.50178,-0.039002,2419.899,21.9,
1581,SBT4050,1,5,3.47781,0.5351,2475.501,21.5,
1581,SBT4050,1,5,3.4014,-1.235,2512.986,20.9,
1581,SBT4050,1,5,3.59801,4.0005,2543.131,20.7,
1581,SBT4050,1,5,3.46322,0,2586.051,21.1,
1581,SBT4050,1,5,3.466144,0,2586.051,20.5,
1581,SBT4050,1,5,3.67048,4.0005,2586.051,20.4,
1581,SBT4050,1,5,3.75097,3.9999,2586.051,21,
1581,SBT4050,1,5,3.799954,4.0004,2586.051,21.4,
1581,SBT4050,1,5,3.8538,3.9998,2586.051,21.6,
1581,SBT4050,1,5,3.916008,4,2586.051,22,
1581,SBT4050,1,5,3.983034,4,2586.051,22.1,
1581,SBT4050,1,5,4.05165,3.9999,2586.051,22.3,
1581,SBT4050,1,5,4.1203,3.9997,2586.051,22.2,
1581,SBT4050,1,5,4.19768,3.9994,2586.051,22.6,
1581,SBT4050,1,5,4.20013,2.6069,2586.051,22.2,
1581,SBT4050,1,5,4.20018,1.841,2586.051,21.6,
1581,SBT4050,1,5,4.20007,1.3753,2586.051,21.1,
1581,SBT4050,1,5,4.20011,1.0658,2586.051,20.7,
1581,SBT4050,1,5,4.20041,0.8508,2586.051,20.5,
1581,SBT4050,1,5,4.200048,0.6923,2586.051,20.3,
1581,SBT4050,1,5,4.20014,0.5735,2586.051,20.2,
1581,SBT4050,1,5,4.20017,0.4827,2586.051,20.1,
1581,SBT4050,1,5,4.19999,0.4115,2586.051,20,
1581,SBT4050,1,5,4.19999,0.35267,2586.051,20,
1581,SBT4050,1,5,4.20019,0.30526,2586.051,20.1,
1581,SBT4050,1,5,4.20006,0.26778,2586.051,20,
1581,SBT4050,1,5,4.20011,0.23704,2586.051,20,
1581,SBT4050,1,5,4.20016,0.21189,2586.051,20,
1581,SBT4050,1,5,4.19994,0.18954,2586.051,20,
1581,SBT4050,1,5,4.19988,0.17086,2586.051,20,
1581,SBT4050,1,5,4.19995,0.15397,2586.051,19.9,
1581,SBT4050,1,5,4.2002,0.14125,2586.051,20,
1581,SBT4050,1,5,4.200012,0.12888,2586.051,20,
1581,SBT4050,1,5,4.19998,0.11936,2586.051,20,
1581,SBT4050,1,5,4.20016,0.11,2586.051,20,
1581,SBT4050,1,5,4.20052,0.10195,2586.051,19.9,
1581,SBT4050,1,5,4.19033,0,2586.051,20.1,
1581,SBT4050,1,5,4.18602,0,2586.051,20,
1581,SBT4050,1,5,4.182278,0,2586.051,19.9,
1581,SBT4050,1,5,4.17945,0,2586.051,20,
1581,SBT4050,1,5,4.17699,0,2586.051,20,
1581,SBT4050,1,5,4.17489,0,2586.051,20.1,
1581,SBT4050,1,5,4.172642,0,2586.051,19.9,
1581,SBT4050,1,5,4.170874,0,2586.051,20,
1581,SBT4050,1,5,4.169004,0,2586.051,20,
1581,SBT4050,1,5,4.16766,0,2586.051,20,
1581,SBT4050,1,5,4.166114,0,2586.051,20,
1581,SBT4050,1,5,4.16478,0,2586.051,20,
1581,SBT4050,1,5,4.16368,0,2586.051,20,
1581,SBT4050,1,5,4.16248,0,2586.051,20,
1581,SBT4050,1,5,4.16131,0,2586.051,20,
1581,SBT4050,1,5,4.16039,0,2586.051,19.9,
1581,SBT4050,1,5,4.15926,0,2586.051,20,
1581,SBT4050,1,5,4.15869,0,2586.051,20,
1581,SBT4050,1,5,4.15767,0,2586.051,20,
1581,SBT4050,1,5,4.15714,0,2586.051,20,
1581,SBT4050,1,5,4.15584,0,2586.051,20,
1581,SBT4050,1,5,4.15535,0,2586.051,20,
1581,SBT4050,1,5,4.15468,0,2586.051,20,
1581,SBT4050,1,5,4.15407,0,2586.051,20,
1581,SBT4050,1,5,4.152986,0,2586.051,20,
1581,SBT4050,1,5,4.15251,0,2586.051,20,
1581,SBT4050,1,5,4.06166,-2.5971,2587.913,20,
1581,SBT4050,1,5,3.95961,-0.803,2708.391,21.1,
1581,SBT4050,1,5,3.99134,-0.035991,2801.88,21.5,
1581,SBT4050,1,5,3.64575,-4.751,3043.575,23.3,
1581,SBT4050,1,5,3.83714,-0.38496,3146.262,22.9,
1581,SBT4050,1,5,3.57217,-6.323,3320.699,22.8,
1581,SBT4050,1,5,3.49056,-10.499,3400.013,22.1,
1581,SBT4050,1,5,3.52709,-2.2778,3683.781,24.1,
1581,SBT4050,1,5,3.21543,-13.194,3829.731,23.5,
1581,SBT4050,1,5,3.2774,-9.892,3954.371,22.7,
1581,SBT4050,1,5,3.46295,-4.4664,4080.509,22.7,
1581,SBT4050,1,5,3.38779,-3.8368,4166.98,21.7,
1581,SBT4050,1,5,3.53474,-0.07299,4285.045,22.5,
1581,SBT4050,1,5,3.43765,-2.1301,4429.655,23.3,
1581,SBT4050,1,5,3.59705,3.2289,4517.132,22.3,
1581,SBT4050,1,5,3.541612,1.359,4585.16,22.1,
1581,SBT4050,1,5,3.6105,4.0001,4647.274,21.5,
1581,SBT4050,1,5,3.47871,-0.41494,4727.95,22.4,
1581,SBT4050,1,5,3.58963,4.0001,4795.942,22,
1581,SBT4050,1,5,3.61256,3.9998,4888.114,22.4,
1581,SBT4050,1,5,3.60646,3.9999,4971.842,22.1,
1581,SBT4050,1,5,3.4679,-0.006999,5013.041,21.5,
1581,SBT4050,1,5,3.46775,-0.012999,5013.671,20.6,
1581,SBT4050,1,5,3.46904,0,5014.184,20.3,
1581,SBT4050,1,5,3.47075,0,5014.184,20.1,
1581,SBT4050,1,5,3.47167,0,5014.184,20,
1581,SBT4050,1,5,3.70991,4.0006,5014.184,20.6,
1581,SBT4050,1,5,3.776894,3.9997,5014.184,21.1,
1581,SBT4050,1,5,3.82294,4,5014.184,21.5,
1581,SBT4050,1,5,3.881392,4.0001,5014.184,21.7,
1581,SBT4050,1,5,3.94496,4.0001,5014.184,22,
1581,SBT4050,1,5,4.01292,3.9995,5014.184,22.2,
1581,SBT4050,1,5,4.08083,4,5014.184,22.4,
1581,SBT4050,1,5,4.152192,4.0001,5014.184,22.5,
1581,SBT4050,1,5,4.200118,3.2946,5014.184,22.6,
1581,SBT4050,1,5,4.20001,2.2326,5014.184,22.1,
1581,SBT4050,1,5,4.20003,1.6167,5014.184,21.4,
1581,SBT4050,1,5,4.20013,1.2314,5014.184,21,
1581,SBT4050,1,5,4.20008,0.967,5014.184,20.6,
1581,SBT4050,1,5,4.20009,0.7778,5014.184,20.4,
1581,SBT4050,1,5,4.20005,0.6391,5014.184,20.4,
1581,SBT4050,1,5,4.20008,0.5317,5014.184,20.3,
1581,SBT4050,1,5,4.19999,0.45059,5014.184,20.1,
1581,SBT4050,1,5,4.20025,0.38445,5014.184,20.2,
1581,SBT4050,1,5,4.200142,0.33132,5014.184,20.1,
1581,SBT4050,1,5,4.19987,0.28919,5014.184,20.1,
1581,SBT4050,1,5,4.19999,0.25329,5014.184,20.1,
1581,SBT4050,1,5,4.1999,0.22546,5014.184,20.1,
1581,SBT4050,1,5,4.20013,0.2013,5014.184,20.1,
1581,SBT4050,1,5,4.20003,0.18024,5014.184,20.1,
1581,SBT4050,1,5,4.20011,0.16334,5014.184,20,
1581,SBT4050,1,5,4.2003,0.1477,5014.184,20.1,
1581,SBT4050,1,5,4.19996,0.1351,5014.184,20.1,
1581,SBT4050,1,5,4.200166,0.12439,5014.184,20,
1581,SBT4050,1,5,4.20008,0.1151,5014.184,20.1,
1581,SBT4050,1,5,4.19974,0.10573,5014.184,20.1,
1581,SBT4050,1,5,4.1933,0,5014.184,20.1,
1581,SBT4050,1,5,4.188198,0,5014.184,20,
1581,SBT4050,1,5,4.18394,0,5014.184,20.1,
1581,SBT4050,1,5,4.18089,0,5014.184,20,
1581,SBT4050,1,5,4.1784,0,5014.184,20.1,
1581,SBT4050,1,5,4.175896,0,5014.184,20.1,
1581,SBT4050,1,5,4.1736,0,5014.184,20,
1581,SBT4050,1,5,4.172,0,5014.184,20,
1581,SBT4050,1,5,4.16984,0,5014.184,20,
1581,SBT4050,1,5,4.16849,0,5014.184,20,
1581,SBT4050,1,5,4.166974,0,5014.184,20,
1581,SBT4050,1,5,4.16554,0,5014.184,20,
1581,SBT4050,1,5,4.164364,0,5014.184,20,
1581,SBT4050,1,5,4.16292,0,5014.184,20,
1581,SBT4050,1,5,4.1618,0,5014.184,20,
1581,SBT4050,1,5,4.16088,0,5014.184,20,
1581,SBT4050,1,5,4.16009,0,5014.184,19.9,
1581,SBT4050,1,5,4.15886,0,5014.184,20,
1581,SBT4050,1,5,4.15802,0,5014.184,20,
1581,SBT4050,1,5,4.15736,0,5014.184,20.1,
1581,SBT4050,1,5,4.15641,0,5014.184,20.1,
1581,SBT4050,1,5,4.15572,0,5014.184,20.2,
1581,SBT4050,1,5,4.1548,0,5014.184,20.1,
1581,SBT4050,1,5,4.154,0,5014.184,20.1,
1581,SBT4050,1,5,4.15342,0,5014.184,20.1,
1581,SBT4050,1,5,4.15298,0,5014.184,20.2,
1581,SBT4050,1,5,4.15239,0,5014.184,20.2,
1581,SBT4050,1,5,3.92605,-1.8999,5112.16,20.8,
1581,SBT4050,1,5,3.83241,-4.9073,5240.955,22.1,
1581,SBT4050,1,5,3.6505,-8.996,5384.092,22.7,
1581,SBT4050,1,5,3.877554,0.071,5513.901,22.4,
1581,SBT4050,1,5,3.60599,-7.255,5604.791,21.7,
1581,SBT4050,1,5,3.79634,-0.07798,5759.339,22.6,
1581,SBT4050,1,5,3.57922,-2.5169,5939.291,23.2,
1581,SBT4050,1,5,3.55078,-4.5344,6059.261,23,
1581,SBT4050,1,5,3.64743,-0.07799,6162.815,22.2,
1581,SBT4050,1,5,3.24207,-11.662,6309.124,22.3,
1581,SBT4050,1,5,3.615234,-0.069,6414.274,22.5,
1581,SBT4050,1,5,3.39032,-4.6389,6596.967,23.2,
1581,SBT4050,1,5,3.43544,-3.696,6696.834,22.4,
1581,SBT4050,1,5,3.40272,-1.296,6815.336,22,
1581,SBT4050,1,5,2.93491,-14.497,6962.126,22.9,
1581,SBT4050,1,5,3.51983,0.5389,7083.946,23.7,
1581,SBT4050,1,5,3.56413,2.292,7165.771,22.7,
1581,SBT4050,1,5,3.43423,-0.040996,7220.847,21.9,
1581,SBT4050,1,5,3.45212,-0.028003,7222.118,20.9,
1581,SBT4050,1,5,3.45663,-0.029997,7223.27,20.4,
1581,SBT4050,1,5,3.45859,-0.024002,7224.252,20.2,
1581,SBT4050,1,5,3.46241,0,7224.689,20.1,
1581,SBT4050,1,5,3.46442,0,7224.689,20.1,
1581,SBT4050,1,5,3.46545,-0.0001,7224.689,,