Folder: Hybrid-physics-ML-battery-modeling/Dataset/AANDCNet/cell1/cycle_04

Note: README.md
# Hybrid-physics-ML-battery-modeling

File: Test1507.csv
Test:,1507,,,,,,,
Start Time:,6/26/2021 9:22 PM,,,,,,,
End Time:,6/27/2021 12:02 AM,,,,,,,
Test,Rack,Shelf,Position,Voltage (V),Current (A),Discharge Capacity (mAh),TC_1 (C),
1507,SBT4050,1,4,3.55613,0,0,20.3,
1507,SBT4050,1,4,3.55606,0,0,20.3,
1507,SBT4050,1,4,3.6871,3.9997,0,20.4,
1507,SBT4050,1,4,3.72603,4.0005,0,20.5,
1507,SBT4050,1,4,3.74521,4.0005,0,20.7,
1507,SBT4050,1,4,3.75672,3.9995,0,20.9,
1507,SBT4050,1,4,3.7667,4.0001,0,21.1,
1507,SBT4050,1,4,3.77662,3.9998,0,21.3,
1507,SBT4050,1,4,3.78749,3.9997,0,21.4,
1507,SBT4050,1,4,3.79843,3.9995,0,21.5,
1507,SBT4050,1,4,3.80979,4.0003,0,21.6,
1507,SBT4050,1,4,3.82169,3.9998,0,21.8,
1507,SBT4050,1,4,3.8334,3.9997,0,21.9,
1507,SBT4050,1,4,3.84593,4,0,22,
1507,SBT4050,1,4,3.85861,4.0003,0,22,
1507,SBT4050,1,4,3.87214,4.0001,0,22.1,
1507,SBT4050,1,4,3.88708,3.9999,0,22.2,
1507,SBT4050,1,4,3.90233,4.0003,0,22.2,
1507,SBT4050,1,4,3.91804,4.0003,0,22.2,
1507,SBT4050,1,4,3.93459,4.0003,0,22.3,
1507,SBT4050,1,4,3.95132,4.0003,0,22.2,
1507,SBT4050,1,4,3.96823,4.0006,0,22.2,
1507,SBT4050,1,4,3.98514,4,0,22.3,
1507,SBT4050,1,4,4.00187,4,0,22.3,
1507,SBT4050,1,4,4.01855,3.9996,0,22.3,
1507,SBT4050,1,4,4.03498,3.9996,0,22.3,
1507,SBT4050,1,4,4.05154,3.9997,0,22.3,
1507,SBT4050,1,4,4.06854,3.9999,0,22.3,
1507,SBT4050,1,4,4.08576,3.9999,0,22.3,
1507,SBT4050,1,4,4.10422,3.9999,0,22.3,
1507,SBT4050,1,4,4.12401,3.9997,0,22.3,
1507,SBT4050,1,4,4.14541,4,0,22.4,
1507,SBT4050,1,4,4.16727,4.0002,0,22.3,
1507,SBT4050,1,4,4.19031,4.0002,0,22.4,
1507,SBT4050,1,4,4.20026,3.6187,0,22.4,
1507,SBT4050,1,4,4.20009,3.1989,0,22.3,
1507,SBT4050,1,4,4.19995,2.8838,0,22.2,
1507,SBT4050,1,4,4.20002,2.6344,0,22.1,
1507,SBT4050,1,4,4.20009,2.4246,0,22,
1507,SBT4050,1,4,4.20016,2.2473,0,21.8,
1507,SBT4050,1,4,4.19996,2.0867,0,21.8,
1507,SBT4050,1,4,4.19999,1.9372,0,21.7,
1507,SBT4050,1,4,4.20029,1.7963,0,21.5,
1507,SBT4050,1,4,4.20019,1.6633,0,21.5,
1507,SBT4050,1,4,4.20016,1.5364,0,21.4,
1507,SBT4050,1,4,4.200054,1.4158,0,21.3,
1507,SBT4050,1,4,4.20022,1.3025,0,21.2,
1507,SBT4050,1,4,4.20017,1.1967,0,21.2,
1507,SBT4050,1,4,4.19998,1.0959,0,21.1,
1507,SBT4050,1,4,4.20016,1.0056,0,21,
1507,SBT4050,1,4,4.200078,0.9226,0,21,
1507,SBT4050,1,4,4.19991,0.8479,0,21,
1507,SBT4050,1,4,4.2003,0.7752,0,20.9,
1507,SBT4050,1,4,4.20015,0.7126,0,20.9,
1507,SBT4050,1,4,4.20019,0.6523,0,20.8,
1507,SBT4050,1,4,4.19998,0.598,0,20.8,
1507,SBT4050,1,4,4.19996,0.5503,0,20.8,
1507,SBT4050,1,4,4.19984,0.5066,0,20.8,
1507,SBT4050,1,4,4.19988,0.46555,0,20.7,
1507,SBT4050,1,4,4.20019,0.42711,0,20.7,
1507,SBT4050,1,4,4.20015,0.3937,0,20.7,
1507,SBT4050,1,4,4.20015,0.36887,0,20.7,
1507,SBT4050,1,4,4.20028,0.33875,0,20.7,
1507,SBT4050,1,4,4.20011,0.31618,0,20.7,
1507,SBT4050,1,4,4.20028,0.29317,0,20.7,
1507,SBT4050,1,4,4.20029,0.27133,0,20.6,
1507,SBT4050,1,4,4.2002,0.25505,0,20.6,
1507,SBT4050,1,4,4.20009,0.23612,0,20.6,
1507,SBT4050,1,4,4.20015,0.22029,0,20.6,
1507,SBT4050,1,4,4.20027,0.20773,0,20.6,
1507,SBT4050,1,4,4.20023,0.19671,0,20.6,
1507,SBT4050,1,4,4.200078,0.18417,0,20.6,
1507,SBT4050,1,4,4.2003,0.17232,0,20.6,
1507,SBT4050,1,4,4.20004,0.16007,0,20.6,
1507,SBT4050,1,4,4.19996,0.14977,0,20.6,
1507,SBT4050,1,4,4.19998,0.14176,0,20.6,
1507,SBT4050,1,4,4.20022,0.13565,0,20.6,
1507,SBT4050,1,4,4.20009,0.12814,0,20.6,
1507,SBT4050,1,4,4.20027,0.12002,0,20.6,
1507,SBT4050,1,4,4.20015,0.11407,0,20.6,
1507,SBT4050,1,4,4.20013,0.10915,0,20.6,
1507,SBT4050,1,4,4.200054,0.10391,0,20.6,
1507,SBT4050,1,4,4.19755,0,0,20.6,
1507,SBT4050,1,4,4.19541,0,0,20.6,
1507,SBT4050,1,4,4.194028,0,0,20.6,
1507,SBT4050,1,4,4.19272,0,0,20.6,
1507,SBT4050,1,4,4.19206,0,0,20.6,
1507,SBT4050,1,4,4.19102,0,0,20.5,
1507,SBT4050,1,4,4.19065,0,0,20.6,
1507,SBT4050,1,4,4.189724,0,0,20.5,
1507,SBT4050,1,4,4.18934,0,0,20.5,
1507,SBT4050,1,4,4.18861,0,0,20.6,
1507,SBT4050,1,4,4.188166,0,0,20.6,
1507,SBT4050,1,4,4.18778,0,0,20.6,
1507,SBT4050,1,4,4.18689,0,0,20.6,
1507,SBT4050,1,4,4.18671,0,0,20.6,
1507,SBT4050,1,4,4.186226,0,0,20.5,
1507,SBT4050,1,4,4.18587,0,0,20.5,
1507,SBT4050,1,4,4.18542,0,0,20.5,
1507,SBT4050,1,4,4.18511,0,0,20.6,
1507,SBT4050,1,4,4.184942,0,0,20.6,
1507,SBT4050,1,4,4.18441,0,0,20.6,
1507,SBT4050,1,4,4.18385,0,0,20.6,
1507,SBT4050,1,4,4.183962,0,0,20.6,
1507,SBT4050,1,4,4.18324,0,0,20.6,
1507,SBT4050,1,4,4.18331,0,0,20.6,
1507,SBT4050,1,4,4.18328,0,0,20.6,
1507,SBT4050,1,4,4.18289,0,0,20.6,
1507,SBT4050,1,4,4.18254,0,0,20.5,
1507,SBT4050,1,4,4.18204,0,0,20.5,
1507,SBT4050,1,4,4.181972,0,0,20.6,
1507,SBT4050,1,4,4.18187,0,0,20.5,
1507,SBT4050,1,4,4.18149,0,0,20.5,
1507,SBT4050,1,4,4.18143,0,0,20.5,
1507,SBT4050,1,4,4.18109,0,0,20.5,
1507,SBT4050,1,4,4.18097,0,0,20.5,
1507,SBT4050,1,4,4.18065,0,0,20.5,
1507,SBT4050,1,4,4.18099,0,0,20.5,
1507,SBT4050,1,4,4.18048,0,0,20.5,
1507,SBT4050,1,4,4.18019,0,0,20.5,
1507,SBT4050,1,4,4.18004,0,0,20.5,
1507,SBT4050,1,4,4.179774,0,0,20.5,
1507,SBT4050,1,4,4.17968,0,0,20.5,
1507,SBT4050,1,4,4.17941,0,0,20.5,
1507,SBT4050,1,4,4.17972,0,0,20.5,
1507,SBT4050,1,4,4.17911,0,0,20.6,
1507,SBT4050,1,4,4.17917,0,0,20.5,
1507,SBT4050,1,4,4.17901,0,0,20.5,
1507,SBT4050,1,4,4.179122,0,0,20.5,
1507,SBT4050,1,4,4.179122,0,0,20.5,
1507,SBT4050,1,4,4.17868,0,0,20.5,
1507,SBT4050,1,4,4.17858,0,0,20.6,
1507,SBT4050,1,4,4.17839,0,0,20.6,
1507,SBT4050,1,4,4.17854,0,0,20.6,
1507,SBT4050,1,4,4.178244,0,0,20.5,
1507,SBT4050,1,4,4.17831,0,0,20.6,
1507,SBT4050,1,4,4.178156,0,0,20.6,
1507,SBT4050,1,4,4.17811,0,0,20.6,
1507,SBT4050,1,4,4.17778,0,0,20.5,
1507,SBT4050,1,4,4.17752,0,0,20.5,
1507,SBT4050,1,4,4.17773,0,0,20.5,
1507,SBT4050,1,4,4.17768,0,0,20.6,
1507,SBT4050,1,4,4.17719,0,0,20.5,
1507,SBT4050,1,4,4.177424,0,0,20.6,
1507,SBT4050,1,4,4.1773,0,0,20.6,
1507,SBT4050,1,4,4.177158,0,0,20.6,
1507,SBT4050,1,4,4.17726,0,0,20.5,
1507,SBT4050,1,4,4.17712,0,0,20.6,
1507,SBT4050,1,4,4.17707,0,0,20.6,
1507,SBT4050,1,4,4.17673,0,0,20.6,
1507,SBT4050,1,4,4.17668,0,0,20.6,
1507,SBT4050,1,4,4.17681,0,0,20.6,
1507,SBT4050,1,4,4.1768,0,0,20.6,
1507,SBT4050,1,4,4.17633,0,0,20.6,
1507,SBT4050,1,4,4.17654,0,0,20.6,
1507,SBT4050,1,4,4.17632,0,0,20.6,
1507,SBT4050,1,4,4.176268,0,0,20.6,
1507,SBT4050,1,4,4.17629,0,0,20.6,
1507,SBT4050,1,4,4.176496,0,0,20.6,
1507,SBT4050,1,4,4.1761,0,0,20.6,
1507,SBT4050,1,4,4.17633,0,0,20.6,
1507,SBT4050,1,4,4.17589,0,0,20.6,
1507,SBT4050,1,4,4.17606,0,0,20.7,
1507,SBT4050,1,4,4.17589,0,0,20.6,
1507,SBT4050,1,4,4.17584,0,0,20.6,
1507,SBT4050,1,4,4.17579,0,0,20.6,
1507,SBT4050,1,4,4.17575,0,0,20.7,
1507,SBT4050,1,4,4.17551,0,0,20.6,
1507,SBT4050,1,4,4.17553,0,0,20.7,
1507,SBT4050,1,4,4.17547,0,0,20.7,
1507,SBT4050,1,4,4.17555,0,0,20.7,
1507,SBT4050,1,4,4.17555,0,0,20.7,
1507,SBT4050,1,4,4.17543,0,0,20.7,
1507,SBT4050,1,4,4.175296,0,0,20.7,
1507,SBT4050,1,4,4.175004,0,0,20.7,
1507,SBT4050,1,4,4.17502,0,0,20.7,
1507,SBT4050,1,4,4.175062,0,0,20.6,
1507,SBT4050,1,4,3.85604,-10,38.967,20.7,
1507,SBT4050,1,4,3.761792,-9.999,144.516,21.8,
1507,SBT4050,1,4,3.718722,-9.999,250.064,22.8,
1507,SBT4050,1,4,3.68376,-10.001,355.614,23.6,
1507,SBT4050,1,4,3.64863,-10,461.167,24.4,
1507,SBT4050,1,4,3.61269,-9.999,566.718,25,
1507,SBT4050,1,4,3.57563,-10,672.267,25.5,
1507,SBT4050,1,4,3.53804,-9.999,777.816,25.8,
1507,SBT4050,1,4,3.49952,-9.998,883.365,26.2,
1507,SBT4050,1,4,3.46,-10,988.915,26.5,
1507,SBT4050,1,4,3.421068,-10,1094.464,26.7,
1507,SBT4050,1,4,3.38364,-10,1200.015,26.9,
1507,SBT4050,1,4,3.34684,-10,1305.566,27.2,
1507,SBT4050,1,4,3.312428,-10,1411.118,27.3,
1507,SBT4050,1,4,3.27745,-10.001,1516.668,27.4,
1507,SBT4050,1,4,3.24256,-9.999,1622.219,27.6,
1507,SBT4050,1,4,3.20567,-9.999,1727.768,27.8,
1507,SBT4050,1,4,3.16567,-9.999,1833.317,28.1,
1507,SBT4050,1,4,3.11882,-10,1938.869,28.4,
1507,SBT4050,1,4,3.05873,-10.001,2044.419,28.7,
1507,SBT4050,1,4,2.96934,-9.998,2149.971,29,
1507,SBT4050,1,4,2.81277,-10,2255.523,29.6,
1507,SBT4050,1,4,2.90307,0,2351.886,30.2,
1507,SBT4050,1,4,3.06061,0,2351.886,29.3,
1507,SBT4050,1,4,3.08317,0,2351.886,27.8,
1507,SBT4050,1,4,3.09357,0,2351.886,26.5,
1507,SBT4050,1,4,3.09995,0,2351.886,25.4,
1507,SBT4050,1,4,3.10435,0,2351.886,24.5,
1507,SBT4050,1,4,3.10759,0,2351.886,23.9,
1507,SBT4050,1,4,3.11089,0,2351.886,23.3,
1507,SBT4050,1,4,3.11308,0,2351.886,22.8,
1507,SBT4050,1,4,3.114901,0,2351.886,22.5,
1507,SBT4050,1,4,3.116857,0,2351.886,22.2,
1507,SBT4050,1,4,3.11849,0,2351.886,21.9,
1507,SBT4050,1,4,3.11995,0,2351.886,21.8,
1507,SBT4050,1,4,3.12109,0,2351.886,21.6,
1507,SBT4050,1,4,3.12267,0,2351.886,21.5,
1507,SBT4050,1,4,3.12385,0,2351.886,21.4,
1507,SBT4050,1,4,3.124978,0,2351.886,21.4,
1507,SBT4050,1,4,3.12553,0,2351.886,21.3,
1507,SBT4050,1,4,3.12687,0,2351.886,21.2,
1507,SBT4050,1,4,3.127726,0,2351.886,21.2,
1507,SBT4050,1,4,3.12842,0,2351.886,21.2,
1507,SBT4050,1,4,3.129316,0,2351.886,21.2,
1507,SBT4050,1,4,3.13059,0,2351.886,21.1,
1507,SBT4050,1,4,3.131322,0,2351.886,21.1,
1507,SBT4050,1,4,3.36352,3.9998,2351.886,21.1,
1507,SBT4050,1,4,3.497454,4.0003,2351.886,21.2,
1507,SBT4050,1,4,3.56053,4.0003,2351.886,21.4,
1507,SBT4050,1,4,3.58709,3.9999,2351.886,21.7,
1507,SBT4050,1,4,3.604022,3.9997,2351.886,21.9,
1507,SBT4050,1,4,3.62079,4.0003,2351.886,22.1,
1507,SBT4050,1,4,3.63664,3.9998,2351.886,22.3,
1507,SBT4050,1,4,3.65212,4.0002,2351.886,22.5,
1507,SBT4050,1,4,3.66735,4.0005,2351.886,22.6,
1507,SBT4050,1,4,3.68231,4,2351.886,22.7,
1507,SBT4050,1,4,3.69772,3.9993,2351.886,22.7,
1507,SBT4050,1,4,3.71197,4.0002,2351.886,22.8,
1507,SBT4050,1,4,3.724252,4.0002,2351.886,22.9,
1507,SBT4050,1,4,3.73406,3.9999,2351.886,22.9,
1507,SBT4050,1,4,3.74351,3.9999,2351.886,22.9,
1507,SBT4050,1,4,3.75267,4,2351.886,23,
1507,SBT4050,1,4,3.76246,4,2351.886,23,
1507,SBT4050,1,4,3.7725,4.0004,2351.886,23,
1507,SBT4050,1,4,3.782842,4.0003,2351.886,23.1,
1507,SBT4050,1,4,3.79334,3.9991,2351.886,23.2,
1507,SBT4050,1,4,3.80369,4.0001,2351.886,23.2,
1507,SBT4050,1,4,3.81417,4.0007,2351.886,23.2,
1507,SBT4050,1,4,3.82469,4,2351.886,23.2,
1507,SBT4050,1,4,3.83661,4,2351.886,23.3,
1507,SBT4050,1,4,3.84803,3.9998,2351.886,23.3,
1507,SBT4050,1,4,3.86133,3.9997,2351.886,23.3,
1507,SBT4050,1,4,3.874984,4,2351.886,23.4,
1507,SBT4050,1,4,3.88967,4.0003,2351.886,23.4,
1507,SBT4050,1,4,3.90506,3.9995,2351.886,23.5,
1507,SBT4050,1,4,3.92133,4.0001,2351.886,23.5,
1507,SBT4050,1,4,3.92898,4,2351.886,,

File: Test1509.csv
Test:,1509,,,,,,,
Start Time:,6/27/2021 1:14 PM,,,,,,,
End Time:,6/28/2021 1:15 PM,,,,,,,
Test,Rack,Shelf,Position,Voltage (V),Current (A),Discharge Capacity (mAh),TC_1 (C),
1509,SBT4050,1,4,3.75989,0,0,20.8,
1509,SBT4050,1,4,4.07209,3.9997,0,21.8,
1509,SBT4050,1,4,4.20015,2.5523,0,22,
1509,SBT4050,1,4,4.2,1.1235,0,21,
1509,SBT4050,1,4,4.2,0.46431,0,20.6,
1509,SBT4050,1,4,4.20016,0.22048,0,20.4,
1509,SBT4050,1,4,4.20018,0.11654,0,20.4,
1509,SBT4050,1,4,4.18951,0,0,20.4,
1509,SBT4050,1,4,4.184468,0,0,20.4,
1509,SBT4050,1,4,4.18187,0,0,20.4,
1509,SBT4050,1,4,4.179992,0,0,20.4,
1509,SBT4050,1,4,4.178474,0,0,20.4,
1509,SBT4050,1,4,4.1771,0,0,20.4,
1509,SBT4050,1,4,4.176,0,0,20.4,
1509,SBT4050,1,4,4.17551,0,0,20.4,
1509,SBT4050,1,4,4.1748,0,0,20.4,
1509,SBT4050,1,4,3.4527,-14.999,691.28,28,
1509,SBT4050,1,4,2.617996,-14.999,2312.062,34.7,
1509,SBT4050,1,4,3.13088,0,2348.161,21.9,
1509,SBT4050,1,4,3.14062,0,2348.161,20.4,
1509,SBT4050,1,4,3.646144,3.9997,2348.161,21.5,
1509,SBT4050,1,4,3.76979,3.9999,2348.161,21.7,
1509,SBT4050,1,4,3.88917,3.9996,2348.161,22,
1509,SBT4050,1,4,4.056932,3.9998,2348.161,22.2,
1509,SBT4050,1,4,4.20012,2.7537,2348.161,22,
1509,SBT4050,1,4,4.20018,1.2284,2348.161,21.1,
1509,SBT4050,1,4,4.20026,0.5127,2348.161,20.6,
1509,SBT4050,1,4,4.20014,0.23654,2348.161,20.5,
1509,SBT4050,1,4,4.19993,0.12865,2348.161,20.4,
1509,SBT4050,1,4,4.19059,0,2348.161,20.3,
1509,SBT4050,1,4,4.18537,0,2348.161,20.3,
1509,SBT4050,1,4,4.18223,0,2348.161,20.3,
1509,SBT4050,1,4,4.18009,0,2348.161,20.3,
1509,SBT4050,1,4,4.17877,0,2348.161,20.3,
1509,SBT4050,1,4,4.1775,0,2348.161,20.4,
1509,SBT4050,1,4,4.17648,0,2348.161,20.4,
1509,SBT4050,1,4,4.17566,0,2348.161,20.3,
1509,SBT4050,1,4,4.17496,0,2348.161,20.3,
1509,SBT4050,1,4,3.60664,-12.498,2744.534,24.4,
1509,SBT4050,1,4,3.14693,-12.499,4095.18,29.7,
1509,SBT4050,1,4,3.113396,0,4695.673,24.1,
1509,SBT4050,1,4,3.12968,0,4695.673,20.7,
1509,SBT4050,1,4,3.566502,4,4695.673,20.6,
1509,SBT4050,1,4,3.72861,4.0006,4695.673,21.7,
1509,SBT4050,1,4,3.831422,4,4695.673,21.9,
1509,SBT4050,1,4,3.98639,3.9995,4695.673,22.1,
1509,SBT4050,1,4,4.17206,3.9997,4695.673,22.1,
1509,SBT4050,1,4,4.20005,1.7281,4695.673,21.3,
1509,SBT4050,1,4,4.20016,0.7376,4695.673,20.7,
1509,SBT4050,1,4,4.20005,0.32527,4695.673,20.4,
1509,SBT4050,1,4,4.20043,0.16652,4695.673,20.4,
1509,SBT4050,1,4,4.19515,0,4695.673,20.3,
1509,SBT4050,1,4,4.18692,0,4695.673,20.3,
1509,SBT4050,1,4,4.18324,0,4695.673,20.4,
1509,SBT4050,1,4,4.18032,0,4695.673,20.4,
1509,SBT4050,1,4,4.17823,0,4695.673,20.4,
1509,SBT4050,1,4,4.17699,0,4695.673,20.4,
1509,SBT4050,1,4,4.17665,0,4695.673,20.4,
1509,SBT4050,1,4,4.1754,0,4695.673,20.4,
1509,SBT4050,1,4,4.1747,0,4695.673,20.4,
1509,SBT4050,1,4,4.17401,0,4695.673,20.4,
1509,SBT4050,1,4,3.62648,-7.498,5390.038,23.5,
1509,SBT4050,1,4,3.34159,-7.499,6200.39,24.3,
1509,SBT4050,1,4,2.62924,-7.501,7010.738,26.4,
1509,SBT4050,1,4,3.528132,3.9998,7037.342,21.2,
1509,SBT4050,1,4,3.72154,4.0001,7037.342,21.7,
1509,SBT4050,1,4,3.826796,3.9998,7037.342,21.9,
1509,SBT4050,1,4,3.97955,3.9997,7037.342,22.2,
1509,SBT4050,1,4,4.163874,4.0004,7037.342,22.2,
1509,SBT4050,1,4,4.199984,1.7708,7037.342,21.4,
1509,SBT4050,1,4,4.2004,0.7591,7037.342,20.8,
1509,SBT4050,1,4,4.200258,0.33307,7037.342,20.5,
1509,SBT4050,1,4,4.19996,0.16733,7037.342,20.4,
1509,SBT4050,1,4,4.197836,0,7037.342,20.4,
1509,SBT4050,1,4,4.1877,0,7037.342,20.4,
1509,SBT4050,1,4,4.18406,0,7037.342,20.3,
1509,SBT4050,1,4,4.18128,0,7037.342,20.3,
1509,SBT4050,1,4,4.179452,0,7037.342,20.3,
1509,SBT4050,1,4,4.17831,0,7037.342,20.3,
1509,SBT4050,1,4,4.17681,0,7037.342,20.3,
1509,SBT4050,1,4,4.17611,0,7037.342,20.3,
1509,SBT4050,1,4,4.17553,0,7037.342,20.4,
1509,SBT4050,1,4,4.17473,0,7037.342,20.4,
1509,SBT4050,1,4,3.79993,-5,7443.348,21.8,
1509,SBT4050,1,4,3.60472,-4.999,7983.572,22.2,
1509,SBT4050,1,4,3.42139,-4.999,8523.792,22.3,
1509,SBT4050,1,4,3.21209,-5.001,9064.015,22.8,
1509,SBT4050,1,4,3.06702,0,9385.609,22.2,
1509,SBT4050,1,4,3.63251,4,9385.609,21.5,
1509,SBT4050,1,4,3.76387,4.0001,9385.609,21.7,
1509,SBT4050,1,4,3.88334,3.9998,9385.609,22.1,
1509,SBT4050,1,4,4.05155,4.0003,9385.609,22.2,
1509,SBT4050,1,4,4.20013,2.8268,9385.609,22.1,
1509,SBT4050,1,4,4.1999,1.2541,9385.609,21.1,
1509,SBT4050,1,4,4.20025,0.526,9385.609,20.7,
1509,SBT4050,1,4,4.199774,0.2443,9385.609,20.5,
1509,SBT4050,1,4,4.20021,0.13385,9385.609,20.4,
1509,SBT4050,1,4,4.19133,0,9385.609,20.4,
1509,SBT4050,1,4,4.185448,0,9385.609,20.3,
1509,SBT4050,1,4,4.18209,0,9385.609,20.3,
1509,SBT4050,1,4,4.17993,0,9385.609,20.3,
1509,SBT4050,1,4,4.17843,0,9385.609,20.3,
1509,SBT4050,1,4,4.17712,0,9385.609,20.4,
1509,SBT4050,1,4,4.17611,0,9385.609,20.4,
1509,SBT4050,1,4,4.1755,0,9385.609,20.4,
1509,SBT4050,1,4,4.17469,0,9385.609,20.4,
1509,SBT4050,1,4,4.03373,-2.4997,9441.194,20.4,
1509,SBT4050,1,4,3.918776,-2.5,9711.327,20.8,
1509,SBT4050,1,4,3.81286,-2.5001,9981.46,20.9,
1509,SBT4050,1,4,3.72217,-2.5001,10251.593,20.9,
1509,SBT4050,1,4,3.620648,-2.5003,10521.727,20.8,
1509,SBT4050,1,4,3.534348,-2.4998,10791.862,20.8,
1509,SBT4050,1,4,3.46054,-2.5,11061.995,21,
1509,SBT4050,1,4,3.36638,-2.5002,11332.129,21.1,
1509,SBT4050,1,4,3.09473,-2.4998,11602.263,21.5,
1509,SBT4050,1,4,2.97742,0,11756.173,21.2,
1509,SBT4050,1,4,3.62848,4.0002,11756.173,21.5,
1509,SBT4050,1,4,3.76079,4,11756.173,21.7,
1509,SBT4050,1,4,3.878532,4.0003,11756.173,22,
1509,SBT4050,1,4,4.0463,3.9996,11756.173,22.1,
1509,SBT4050,1,4,4.200316,2.9262,11756.173,22,
1509,SBT4050,1,4,4.1999,1.2902,11756.173,21,
1509,SBT4050,1,4,4.20017,0.5483,11756.173,20.5,
1509,SBT4050,1,4,4.19995,0.25728,11756.173,20.4,
1509,SBT4050,1,4,4.199994,0.13855,11756.173,20.3,
1509,SBT4050,1,4,4.191436,0,11756.173,20.3,
1509,SBT4050,1,4,4.18514,0,11756.173,20.3,
1509,SBT4050,1,4,4.181892,0,11756.173,20.4,
1509,SBT4050,1,4,4.17935,0,11756.173,20.4,
1509,SBT4050,1,4,4.17803,0,11756.173,20.3,
1509,SBT4050,1,4,4.1768,0,11756.173,20.3,
1509,SBT4050,1,4,4.17567,0,11756.173,20.3,
1509,SBT4050,1,4,4.17482,0,11756.173,20.2,
1509,SBT4050,1,4,4.174008,0,11756.173,20.2,
1509,SBT4050,1,4,3.88069,-9.358,11801.43,20.4,
1509,SBT4050,1,4,3.91833,-3.1841,12209.178,21.9,
1509,SBT4050,1,4,3.82651,0.5579,12604.554,21.9,
1509,SBT4050,1,4,3.58774,-3.0801,13026.609,21.8,
1509,SBT4050,1,4,3.50747,-0.16299,13438.198,22.6,
1509,SBT4050,1,4,3.525484,-0.027002,13730.369,21.9,
1509,SBT4050,1,4,3.58772,-0.058,13907.866,21.2,
1509,SBT4050,1,4,3.54554,-0.045996,14025.533,20.8,
1509,SBT4050,1,4,3.54358,-0.043007,14030.113,20.4,
1509,SBT4050,1,4,3.54407,0,14033.258,20.4,
1509,SBT4050,1,4,3.75878,3.9995,14033.258,21,
1509,SBT4050,1,4,3.88472,4.0004,14033.258,22,
1509,SBT4050,1,4,4.05665,3.9998,14033.258,22.1,
1509,SBT4050,1,4,4.19999,2.7087,14033.258,21.9,
1509,SBT4050,1,4,4.2001,1.1956,14033.258,21,
1509,SBT4050,1,4,4.20006,0.5085,14033.258,20.5,
1509,SBT4050,1,4,4.200122,0.23987,14033.258,20.4,
1509,SBT4050,1,4,4.20024,0.13236,14033.258,20.3,
1509,SBT4050,1,4,4.19136,0,14033.258,20.3,
1509,SBT4050,1,4,4.18477,0,14033.258,20.2,
1509,SBT4050,1,4,4.18204,0,14033.258,20.2,
1509,SBT4050,1,4,4.17968,0,14033.258,20.3,
1509,SBT4050,1,4,4.17791,0,14033.258,20.3,
1509,SBT4050,1,4,4.17639,0,14033.258,20.3,
1509,SBT4050,1,4,4.17548,0,14033.258,20.4,
1509,SBT4050,1,4,4.17476,0,14033.258,20.3,
1509,SBT4050,1,4,4.174024,0,14033.258,20.3,
1509,SBT4050,1,4,4.02615,-2.1416,14113.614,20.9,
1509,SBT4050,1,4,3.89061,1.1188,14607.869,22.1,
1509,SBT4050,1,4,3.75374,-1.9669,14968.418,22.1,
1509,SBT4050,1,4,3.80968,-1.6399,15107.921,21.3,
1509,SBT4050,1,4,3.83316,0.33396,15254.863,20.8,
1509,SBT4050,1,4,3.58029,-3.909,15593.319,21.8,
1509,SBT4050,1,4,3.56211,0.9401,16015.066,21.8,
1509,SBT4050,1,4,3.55036,0.35202,16309.691,21.3,
1509,SBT4050,1,4,3.5106,-0.9011,16504.566,21.5,
1509,SBT4050,1,4,3.55728,0.9789,16619.305,,
1509,SBT4050,1,4,3.73357,4.0001,16619.305,20.8,
1509,SBT4050,1,4,3.85549,3.9997,16619.305,21.9,
1509,SBT4050,1,4,4.02339,4,16619.305,22.2,
1509,SBT4050,1,4,4.20029,3.3406,16619.305,22.2,
1509,SBT4050,1,4,4.20022,1.4006,16619.305,21.2,
1509,SBT4050,1,4,4.2,0.5958,16619.305,20.6,
1509,SBT4050,1,4,4.20018,0.27782,16619.305,20.4,
1509,SBT4050,1,4,4.20008,0.14823,16619.305,20.4,
1509,SBT4050,1,4,4.19388,0,16619.305,20.3,
1509,SBT4050,1,4,4.1863,0,16619.305,20.3,
1509,SBT4050,1,4,4.182566,0,16619.305,20.3,
1509,SBT4050,1,4,4.180248,0,16619.305,20.3,
1509,SBT4050,1,4,4.17868,0,16619.305,20.3,
1509,SBT4050,1,4,4.17711,0,16619.305,20.3,
1509,SBT4050,1,4,4.1762,0,16619.305,20.4,
1509,SBT4050,1,4,4.17507,0,16619.305,20.4,
1509,SBT4050,1,4,4.17462,0,16619.305,20.4,
1509,SBT4050,1,4,4.17391,0,16619.305,20.4,
1509,SBT4050,1,4,3.75061,-9.516,16940.646,21.8,
1509,SBT4050,1,4,3.87184,-0.05199,17369.921,22,
1509,SBT4050,1,4,3.74987,3.9997,17896.195,22.9,
1509,SBT4050,1,4,3.61285,-0.074,18200.681,21.5,
1509,SBT4050,1,4,3.570226,0.523,18550.381,21.7,
1509,SBT4050,1,4,3.520196,-0.19199,18760.527,21.7,
1509,SBT4050,1,4,3.41309,-4.6936,18985.551,21.6,
1509,SBT4050,1,4,3.5381,-0.018998,19047.223,20.6,
1509,SBT4050,1,4,3.68904,3.9993,19047.433,20.5,
1509,SBT4050,1,4,3.83554,4,19047.433,21.8,
1509,SBT4050,1,4,3.99654,4,19047.433,22.2,
1509,SBT4050,1,4,4.19137,3.9997,19047.433,22.3,
1509,SBT4050,1,4,4.20015,1.5857,19047.433,21.4,
1509,SBT4050,1,4,4.20015,0.6769,19047.433,20.8,
1509,SBT4050,1,4,4.19983,0.30612,19047.433,20.6,
1509,SBT4050,1,4,4.20013,0.1619,19047.433,20.5,
1509,SBT4050,1,4,4.19537,0,19047.433,20.5,
1509,SBT4050,1,4,4.1871,0,19047.433,20.4,
1509,SBT4050,1,4,4.18315,0,19047.433,20.4,
1509,SBT4050,1,4,4.18035,0,19047.433,20.4,
1509,SBT4050,1,4,4.17836,0,19047.433,20.4,
1509,SBT4050,1,4,4.177184,0,19047.433,20.4,
1509,SBT4050,1,4,4.17602,0,19047.433,20.4,
1509,SBT4050,1,4,4.17502,0,19047.433,20.4,
1509,SBT4050,1,4,4.17443,0,19047.433,20.4,
1509,SBT4050,1,4,4.17387,0,19047.433,20.5,
1509,SBT4050,1,4,3.95713,0.6788,19393.766,22.3,
1509,SBT4050,1,4,3.87726,-0.7858,19715.569,21.8,
1509,SBT4050,1,4,3.8148,3.124,20135.231,22.2,
1509,SBT4050,1,4,3.45989,-6.509,20504.761,22.1,
1509,SBT4050,1,4,3.3124,-11.396,20856.319,21.6,
1509,SBT4050,1,4,3.57181,1.6471,21199.018,22,
1509,SBT4050,1,4,3.5339,-0.03599,21256.329,20.6,
1509,SBT4050,1,4,3.53879,0,21257.936,20.4,
1509,SBT4050,1,4,3.5396,-9.8E-05,21257.936,,