Folder: Hybrid-physics-ML-battery-modeling/Dataset/AANDCNet/cell1/cycle_14

Note: README.md
# Hybrid-physics-ML-battery-modeling

File: Test1534.csv
Test:,1534,,,,,,,
Start Time:,7/17/2021 1:39 PM,,,,,,,
End Time:,7/17/2021 3:45 PM,,,,,,,
Test,Rack,Shelf,Position,Voltage (V),Current (A),Discharge Capacity (mAh),TC_1 (C),
1534,SBT4050,1,4,4.14333,0,0,19.8,
1534,SBT4050,1,4,4.14331,0,0,19.8,
1534,SBT4050,1,4,4.14315,0,0,19.8,
1534,SBT4050,1,4,4.14331,0,0,19.8,
1534,SBT4050,1,4,4.14315,0,0,19.9,
1534,SBT4050,1,4,4.14312,0,0,19.9,
1534,SBT4050,1,4,4.14321,0,0,20.1,
1534,SBT4050,1,4,4.14296,0,0,20,
1534,SBT4050,1,4,4.14316,0,0,20,
1534,SBT4050,1,4,4.14344,0,0,20,
1534,SBT4050,1,4,4.20154,1.3885,0,20,
1534,SBT4050,1,4,4.20052,0.8151,0,20,
1534,SBT4050,1,4,4.20056,0.5926,0,20,
1534,SBT4050,1,4,4.200714,0.46451,0,20,
1534,SBT4050,1,4,4.20046,0.37769,0,20,
1534,SBT4050,1,4,4.2005,0.31088,0,20,
1534,SBT4050,1,4,4.200404,0.26673,0,20,
1534,SBT4050,1,4,4.20038,0.22783,0,20,
1534,SBT4050,1,4,4.20015,0.19842,0,20,
1534,SBT4050,1,4,4.20048,0.18079,0,20,
1534,SBT4050,1,4,4.20018,0.15627,0,20,
1534,SBT4050,1,4,4.20027,0.13804,0,20,
1534,SBT4050,1,4,4.20044,0.12497,0,20,
1534,SBT4050,1,4,4.20031,0.11406,0,20,
1534,SBT4050,1,4,4.20034,0.10496,0,20,
1534,SBT4050,1,4,4.19639,0,0,19.9,
1534,SBT4050,1,4,4.19485,0,0,19.9,
1534,SBT4050,1,4,4.19396,0,0,19.9,
1534,SBT4050,1,4,4.19276,0,0,19.9,
1534,SBT4050,1,4,4.192262,0,0,19.9,
1534,SBT4050,1,4,4.19194,0,0,19.9,
1534,SBT4050,1,4,4.19094,0,0,19.9,
1534,SBT4050,1,4,4.19058,0,0,19.9,
1534,SBT4050,1,4,4.190374,0,0,19.9,
1534,SBT4050,1,4,4.18974,0,0,19.9,
1534,SBT4050,1,4,4.18959,0,0,19.9,
1534,SBT4050,1,4,4.18899,0,0,19.9,
1534,SBT4050,1,4,4.18875,0,0,19.9,
1534,SBT4050,1,4,4.1887,0,0,19.9,
1534,SBT4050,1,4,4.18853,0,0,19.9,
1534,SBT4050,1,4,4.18833,0,0,19.9,
1534,SBT4050,1,4,4.18809,0,0,19.9,
1534,SBT4050,1,4,4.18771,0,0,19.9,
1534,SBT4050,1,4,4.187336,0,0,19.9,
1534,SBT4050,1,4,4.18735,0,0,19.9,
1534,SBT4050,1,4,4.187252,0,0,19.9,
1534,SBT4050,1,4,4.18712,0,0,19.9,
1534,SBT4050,1,4,4.186852,0,0,19.9,
1534,SBT4050,1,4,4.18655,0,0,20,
1534,SBT4050,1,4,4.186448,0,0,19.9,
1534,SBT4050,1,4,4.18621,0,0,19.9,
1534,SBT4050,1,4,4.18592,0,0,20,
1534,SBT4050,1,4,4.18636,0,0,20,
1534,SBT4050,1,4,4.18588,0,0,20,
1534,SBT4050,1,4,4.186,0,0,20,
1534,SBT4050,1,4,4.18574,0,0,20,
1534,SBT4050,1,4,4.18563,0,0,19.9,
1534,SBT4050,1,4,4.18536,0,0,19.9,
1534,SBT4050,1,4,4.18538,0,0,19.9,
1534,SBT4050,1,4,4.185382,0,0,19.9,
1534,SBT4050,1,4,4.18504,0,0,19.9,
1534,SBT4050,1,4,4.1852,0,0,19.8,
1534,SBT4050,1,4,4.18478,0,0,19.8,
1534,SBT4050,1,4,4.184662,0,0,19.8,
1534,SBT4050,1,4,4.18466,0,0,19.7,
1534,SBT4050,1,4,4.18468,0,0,19.8,
1534,SBT4050,1,4,4.1845,0,0,19.7,
1534,SBT4050,1,4,4.18427,0,0,19.8,
1534,SBT4050,1,4,4.18417,0,0,19.7,
1534,SBT4050,1,4,4.18409,0,0,19.6,
1534,SBT4050,1,4,4.18406,0,0,19.7,
1534,SBT4050,1,4,4.18408,0,0,19.7,
1534,SBT4050,1,4,4.184068,0,0,19.7,
1534,SBT4050,1,4,4.18359,0,0,19.7,
1534,SBT4050,1,4,4.18362,0,0,19.7,
1534,SBT4050,1,4,4.18355,0,0,19.6,
1534,SBT4050,1,4,4.18361,0,0,19.6,
1534,SBT4050,1,4,4.18386,0,0,19.6,
1534,SBT4050,1,4,4.18384,0,0,19.5,
1534,SBT4050,1,4,4.18342,0,0,19.5,
1534,SBT4050,1,4,4.18352,0,0,19.5,
1534,SBT4050,1,4,4.18353,0,0,19.5,
1534,SBT4050,1,4,4.183344,0,0,19.4,
1534,SBT4050,1,4,4.18304,0,0,19.4,
1534,SBT4050,1,4,4.18314,0,0,19.4,
1534,SBT4050,1,4,4.18333,0,0,19.4,
1534,SBT4050,1,4,4.18304,0,0,19.4,
1534,SBT4050,1,4,4.18281,0,0,19.3,
1534,SBT4050,1,4,4.18328,0,0,19.3,
1534,SBT4050,1,4,4.18282,0,0,19.3,
1534,SBT4050,1,4,4.18273,0,0,19.3,
1534,SBT4050,1,4,4.182742,0,0,19.3,
1534,SBT4050,1,4,4.18269,0,0,19.3,
1534,SBT4050,1,4,4.18284,0,0,19.3,
1534,SBT4050,1,4,4.18246,0,0,19.3,
1534,SBT4050,1,4,4.18225,0,0,19.3,
1534,SBT4050,1,4,4.18276,0,0,19.3,
1534,SBT4050,1,4,4.18219,0,0,19.4,
1534,SBT4050,1,4,4.1824,0,0,19.4,
1534,SBT4050,1,4,4.18232,0,0,19.4,
1534,SBT4050,1,4,4.182386,0,0,19.4,
1534,SBT4050,1,4,4.1822,0,0,19.4,
1534,SBT4050,1,4,4.18212,0,0,19.4,
1534,SBT4050,1,4,4.182082,0,0,19.5,
1534,SBT4050,1,4,4.18223,0,0,19.5,
1534,SBT4050,1,4,4.18244,0,0,19.5,
1534,SBT4050,1,4,4.18214,0,0,19.5,
1534,SBT4050,1,4,4.18185,0,0,19.5,
1534,SBT4050,1,4,4.18223,0,0,19.5,
1534,SBT4050,1,4,4.18191,0,0,19.5,
1534,SBT4050,1,4,4.18205,0,0,19.5,
1534,SBT4050,1,4,4.18213,0,0,19.6,
1534,SBT4050,1,4,4.181788,0,0,19.5,
1534,SBT4050,1,4,4.18189,0,0,19.6,
1534,SBT4050,1,4,4.18206,0,0,19.6,
1534,SBT4050,1,4,4.181748,0,0,19.6,
1534,SBT4050,1,4,4.181944,0,0,19.6,
1534,SBT4050,1,4,4.18171,0,0,19.6,
1534,SBT4050,1,4,4.18173,0,0,19.6,
1534,SBT4050,1,4,4.18146,0,0,19.6,
1534,SBT4050,1,4,4.18139,0,0,19.6,
1534,SBT4050,1,4,4.18179,0,0,19.6,
1534,SBT4050,1,4,4.18164,0,0,19.6,
1534,SBT4050,1,4,4.18121,0,0,19.7,
1534,SBT4050,1,4,4.1815,0,0,19.6,
1534,SBT4050,1,4,4.18149,0,0,19.6,
1534,SBT4050,1,4,4.18124,0,0,19.6,
1534,SBT4050,1,4,4.18111,0,0,19.6,
1534,SBT4050,1,4,4.181136,0,0,19.6,
1534,SBT4050,1,4,4.18104,0,0,19.7,
1534,SBT4050,1,4,4.18135,0,0,19.7,
1534,SBT4050,1,4,4.18122,0,0,19.6,
1534,SBT4050,1,4,4.18108,0,0,19.6,
1534,SBT4050,1,4,4.1812,0,0,19.6,
1534,SBT4050,1,4,4.180922,0,0,19.6,
1534,SBT4050,1,4,4.18093,0,0,19.6,
1534,SBT4050,1,4,4.18088,0,0,19.6,
1534,SBT4050,1,4,4.18098,0,0,19.6,
1534,SBT4050,1,4,4.1807,0,0,19.6,
1534,SBT4050,1,4,4.181002,0,0,19.6,
1534,SBT4050,1,4,4.18106,0,0,19.6,
1534,SBT4050,1,4,4.18683,0.19499,0.008,19.6,
1534,SBT4050,1,4,4.10133,-2.7805,1.304,19.6,
1534,SBT4050,1,4,3.94345,-6.431,37.389,19.8,
1534,SBT4050,1,4,3.864606,-6.247,87.012,20.1,
1534,SBT4050,1,4,3.77509,-9.142,123.624,20.4,
1534,SBT4050,1,4,3.87136,-3.9144,171.072,20.9,
1534,SBT4050,1,4,4.05279,-0.017991,172.653,21,
1534,SBT4050,1,4,3.87875,-2.3488,220.708,21,
1534,SBT4050,1,4,4.10145,2.9421,230.86,21.3,
1534,SBT4050,1,4,3.64849,-14.502,246.147,21.1,
1534,SBT4050,1,4,3.64629,-10.234,332.038,21.7,
1534,SBT4050,1,4,4.00244,0.813,346.333,22,
1534,SBT4050,1,4,3.70066,-10.082,368.142,21.8,
1534,SBT4050,1,4,3.801266,-4.0195,414.724,21.8,
1534,SBT4050,1,4,3.72039,-8.021,437.903,21.7,
1534,SBT4050,1,4,3.791128,-4.1106,471.73,21.7,
1534,SBT4050,1,4,3.83442,-1.6509,499.555,21.6,
1534,SBT4050,1,4,3.9253,-0.11101,500.008,21.4,
1534,SBT4050,1,4,3.76829,-4.3023,536.685,21.3,
1534,SBT4050,1,4,3.88557,-0.026999,559.696,21.2,
1534,SBT4050,1,4,3.90643,-0.011,560.265,21.1,
1534,SBT4050,1,4,3.81866,-0.7778,598.399,21,
1534,SBT4050,1,4,3.57902,-11.358,630.832,21.2,
1534,SBT4050,1,4,3.83607,-0.7858,668.248,21.3,
1534,SBT4050,1,4,3.74257,-3.0119,724.761,21.7,
1534,SBT4050,1,4,3.89067,1.621,745.041,21.8,
1534,SBT4050,1,4,3.4737,-14.501,767.16,21.6,
1534,SBT4050,1,4,3.6904,-4.992,805.789,21.8,
1534,SBT4050,1,4,3.83581,-0.06699,808.73,21.7,
1534,SBT4050,1,4,3.53196,-8.134,885.654,22,
1534,SBT4050,1,4,3.844132,4.0007,927.356,22.4,
1534,SBT4050,1,4,3.777262,-0.996,927.916,22.2,
1534,SBT4050,1,4,3.63759,-3.112,988.399,22.2,
1534,SBT4050,1,4,3.83189,2.498,1001.217,22.1,
1534,SBT4050,1,4,3.60094,-5.136,1046.865,22.1,
1534,SBT4050,1,4,3.55252,-6.57,1077.51,21.9,
1534,SBT4050,1,4,3.738606,-0.05001,1087.909,21.8,
1534,SBT4050,1,4,3.57839,-4.941,1113.797,21.5,
1534,SBT4050,1,4,3.70424,1.6681,1148.571,21.4,
1534,SBT4050,1,4,3.71539,-0.12399,1149.005,21.3,
1534,SBT4050,1,4,3.53179,-6.118,1172.874,21.1,
1534,SBT4050,1,4,3.66023,0.823,1211.237,21.2,
1534,SBT4050,1,4,3.60264,-0.6749,1260.223,21.4,
1534,SBT4050,1,4,3.48478,-3.985,1314.708,21.6,
1534,SBT4050,1,4,3.65871,0.6819,1336.924,21.9,
1534,SBT4050,1,4,3.67134,-0.099,1337.44,21.7,
1534,SBT4050,1,4,3.71718,4.0002,1389.952,22,
1534,SBT4050,1,4,3.65655,-0.06799,1400.014,21.9,
1534,SBT4050,1,4,3.40306,-6.602,1453.1,21.7,
1534,SBT4050,1,4,3.51585,-1.1329,1517.105,22.4,
1534,SBT4050,1,4,3.62006,-0.07799,1517.63,22.4,
1534,SBT4050,1,4,3.42201,-5.802,1563.073,22.2,
1534,SBT4050,1,4,3.61266,1.7768,1590.493,22.3,
1534,SBT4050,1,4,3.49039,-2.2489,1630.043,22.1,
1534,SBT4050,1,4,3.53348,-0.4869,1657.182,22,
1534,SBT4050,1,4,3.62676,2.1768,1677.339,21.9,
1534,SBT4050,1,4,3.4599,-4.8877,1686.513,21.6,
1534,SBT4050,1,4,3.42436,-4.2605,1728.118,21.5,
1534,SBT4050,1,4,3.56197,-0.06099,1738.657,21.4,
1534,SBT4050,1,4,3.440806,-5.452,1744.151,21.2,
1534,SBT4050,1,4,3.35307,-7.585,1783.966,21.3,
1534,SBT4050,1,4,3.31537,-6.334,1839.135,21.4,
1534,SBT4050,1,4,3.18109,-11.163,1879.869,21.6,
1534,SBT4050,1,4,3.40244,-2.5682,1923.794,22.2,
1534,SBT4050,1,4,3.53235,-0.073,1924.543,22,
1534,SBT4050,1,4,3.44012,-0.047005,1976.024,22,
1534,SBT4050,1,4,3.59337,2.838,1985.6,22.2,
1534,SBT4050,1,4,3.13179,-14.502,2000.644,22,
1534,SBT4050,1,4,3.338974,-3.4911,2068.081,22.5,
1534,SBT4050,1,4,3.58227,2,2069.758,22.5,
1534,SBT4050,1,4,3.15778,-11.502,2095.486,22.1,
1534,SBT4050,1,4,3.43166,-0.7939,2131.9,22.5,
1534,SBT4050,1,4,3.38423,-3.5562,2145.063,22.1,
1534,SBT4050,1,4,3.521934,0.712,2151.584,21.9,
1534,SBT4050,1,4,3.58466,2.4155,2153.397,21.6,
1534,SBT4050,1,4,3.52431,-0.26199,2153.815,21.4,
1534,SBT4050,1,4,3.344419,-4.4582,2185.339,21.2,
1534,SBT4050,1,4,3.48261,-0.040002,2206.411,21.3,
1534,SBT4050,1,4,3.49252,-0.04999,2206.72,21.1,
1534,SBT4050,1,4,3.49768,-0.029996,2207.021,20.9,
1534,SBT4050,1,4,3.49998,-0.031,2207.296,20.7,
1534,SBT4050,1,4,3.50182,-0.034,2207.58,20.6,
1534,SBT4050,1,4,3.50348,-0.031999,2207.861,20.5,
1534,SBT4050,1,4,3.50441,-0.038993,2208.157,20.4,
1534,SBT4050,1,4,3.50543,-0.029998,2208.442,20.3,
1534,SBT4050,1,4,3.50633,-0.028998,2208.71,20.3,
1534,SBT4050,1,4,3.50687,-0.021999,2208.955,20.2,
1534,SBT4050,1,4,3.50747,-0.030003,2209.176,20.2,
1534,SBT4050,1,4,3.50765,-0.031998,2209.409,20.2,
1534,SBT4050,1,4,3.50805,-0.030998,2209.639,20.2,
1534,SBT4050,1,4,3.50856,-0.043992,2209.847,20.1,
1534,SBT4050,1,4,3.50917,-0.024001,2210.066,20.2,
1534,SBT4050,1,4,3.5092,-0.032997,2210.3,20.2,
1534,SBT4050,1,4,3.51031,0,2210.501,20.1,
1534,SBT4050,1,4,3.51092,0,2210.501,20.1,
1534,SBT4050,1,4,3.51121,0,2210.501,20.1,
1534,SBT4050,1,4,3.51172,0,2210.501,20.1,
1534,SBT4050,1,4,3.51194,0,2210.501,20.1,
1534,SBT4050,1,4,3.51215,0,2210.501,20.1,
1534,SBT4050,1,4,3.51267,0,2210.501,20.1,
1534,SBT4050,1,4,3.51281,0,2210.501,20.1,
1534,SBT4050,1,4,3.51317,0,2210.501,20.1,
1534,SBT4050,1,4,3.51333,0,2210.501,20.1,
1534,SBT4050,1,4,3.51359,-0.000109,2210.501,,