Folder: Hybrid-physics-ML-battery-modeling/Dataset/AANDCNet/cell1/cycle_13

Note: README.md
# Hybrid-physics-ML-battery-modeling

File: Test1526.csv
Test:,1526,,,,,,,
Start Time:,7/13/2021 10:10 PM,,,,,,,
End Time:,7/14/2021 12:55 AM,,,,,,,
Test,Rack,Shelf,Position,Voltage (V),Current (A),Discharge Capacity (mAh),TC_1 (C),
1526,SBT4050,1,4,3.519704,0,0,,
1526,SBT4050,1,4,3.52002,0,0,20.2,
1526,SBT4050,1,4,3.67322,3.9997,0,20.2,
1526,SBT4050,1,4,3.71562,4.0001,0,20.5,
1526,SBT4050,1,4,3.7421,4,0,20.8,
1526,SBT4050,1,4,3.761996,4,0,20.9,
1526,SBT4050,1,4,3.77383,3.9994,0,21.1,
1526,SBT4050,1,4,3.78406,4.0004,0,21.3,
1526,SBT4050,1,4,3.79476,3.9995,0,21.3,
1526,SBT4050,1,4,3.80657,4.0001,0,21.5,
1526,SBT4050,1,4,3.81942,3.9996,0,21.6,
1526,SBT4050,1,4,3.8332,4.0001,0,21.7,
1526,SBT4050,1,4,3.847012,3.9998,0,21.8,
1526,SBT4050,1,4,3.86142,3.9997,0,21.9,
1526,SBT4050,1,4,3.87624,4.0001,0,22,
1526,SBT4050,1,4,3.89178,3.9998,0,22.1,
1526,SBT4050,1,4,3.90772,4.0001,0,22.2,
1526,SBT4050,1,4,3.92443,3.9994,0,22.3,
1526,SBT4050,1,4,3.9414,4,0,22.5,
1526,SBT4050,1,4,3.95877,3.9999,0,22.6,
1526,SBT4050,1,4,3.97618,3.9994,0,22.6,
1526,SBT4050,1,4,3.99371,3.9999,0,22.7,
1526,SBT4050,1,4,4.01148,4,0,22.8,
1526,SBT4050,1,4,4.02838,4.0001,0,22.8,
1526,SBT4050,1,4,4.04586,4.0001,0,22.9,
1526,SBT4050,1,4,4.063508,4.0002,0,23,
1526,SBT4050,1,4,4.080772,4.0007,0,23.1,
1526,SBT4050,1,4,4.09893,3.9998,0,23.1,
1526,SBT4050,1,4,4.11768,3.9995,0,23.1,
1526,SBT4050,1,4,4.13856,4.0003,0,23.2,
1526,SBT4050,1,4,4.1611,4.0002,0,23.2,
1526,SBT4050,1,4,4.18268,3.9998,0,23.2,
1526,SBT4050,1,4,4.20019,3.8116,0,23.3,
1526,SBT4050,1,4,4.20026,3.31,0,23.3,
1526,SBT4050,1,4,4.20019,2.9416,0,23.2,
1526,SBT4050,1,4,4.19987,2.6381,0,23.1,
1526,SBT4050,1,4,4.20021,2.3956,0,23,
1526,SBT4050,1,4,4.20006,2.1941,0,22.9,
1526,SBT4050,1,4,4.20038,2.0127,0,22.7,
1526,SBT4050,1,4,4.20008,1.8624,0,22.6,
1526,SBT4050,1,4,4.20003,1.7162,0,22.5,
1526,SBT4050,1,4,4.20023,1.5881,0,22.3,
1526,SBT4050,1,4,4.20007,1.4724,0,22.2,
1526,SBT4050,1,4,4.20001,1.3612,0,22.1,
1526,SBT4050,1,4,4.20006,1.261,0,22.1,
1526,SBT4050,1,4,4.19997,1.1686,0,22,
1526,SBT4050,1,4,4.20002,1.0816,0,21.9,
1526,SBT4050,1,4,4.20019,1.0033,0,21.8,
1526,SBT4050,1,4,4.20003,0.9343,0,21.7,
1526,SBT4050,1,4,4.20023,0.8677,0,21.7,
1526,SBT4050,1,4,4.20003,0.8078,0,21.6,
1526,SBT4050,1,4,4.199808,0.7497,0,21.6,
1526,SBT4050,1,4,4.19994,0.6993,0,21.5,
1526,SBT4050,1,4,4.20001,0.6536,0,21.5,
1526,SBT4050,1,4,4.20006,0.6082,0,21.5,
1526,SBT4050,1,4,4.20036,0.5691,0,21.5,
1526,SBT4050,1,4,4.2,0.5337,0,21.4,
1526,SBT4050,1,4,4.19993,0.4991,0,21.4,
1526,SBT4050,1,4,4.19997,0.47264,0,21.4,
1526,SBT4050,1,4,4.20021,0.44255,0,21.3,
1526,SBT4050,1,4,4.20008,0.41707,0,21.3,
1526,SBT4050,1,4,4.20003,0.39351,0,21.3,
1526,SBT4050,1,4,4.20021,0.37051,0,21.3,
1526,SBT4050,1,4,4.20007,0.35063,0,21.2,
1526,SBT4050,1,4,4.19999,0.33238,0,21.2,
1526,SBT4050,1,4,4.20017,0.31444,0,21.2,
1526,SBT4050,1,4,4.200118,0.29892,0,21.2,
1526,SBT4050,1,4,4.20025,0.28236,0,21.2,
1526,SBT4050,1,4,4.19987,0.26655,0,21.2,
1526,SBT4050,1,4,4.200118,0.25493,0,21.1,
1526,SBT4050,1,4,4.20001,0.24214,0,21.1,
1526,SBT4050,1,4,4.199844,0.23259,0,21.1,
1526,SBT4050,1,4,4.20005,0.22136,0,21.1,
1526,SBT4050,1,4,4.20021,0.21133,0,21.1,
1526,SBT4050,1,4,4.200118,0.20006,0,21.1,
1526,SBT4050,1,4,4.200154,0.19453,0,21.1,
1526,SBT4050,1,4,4.200106,0.18394,0,21,
1526,SBT4050,1,4,4.1999,0.17761,0,21,
1526,SBT4050,1,4,4.20023,0.17022,0,21,
1526,SBT4050,1,4,4.20003,0.16123,0,21,
1526,SBT4050,1,4,4.200404,0.15727,0,21,
1526,SBT4050,1,4,4.20019,0.15029,0,21,
1526,SBT4050,1,4,4.20068,0.13648,0,21,
1526,SBT4050,1,4,4.200154,0.1337,0,21,
1526,SBT4050,1,4,4.19996,0.1269,0,21,
1526,SBT4050,1,4,4.19977,0.12375,0,21,
1526,SBT4050,1,4,4.20001,0.11986,0,21,
1526,SBT4050,1,4,4.20013,0.11654,0,21,
1526,SBT4050,1,4,4.19936,0.12386,0,21,
1526,SBT4050,1,4,4.200154,0.11644,0,21,
1526,SBT4050,1,4,4.20009,0.11373,0,21,
1526,SBT4050,1,4,4.19989,0.11064,0,21,
1526,SBT4050,1,4,4.20062,0.1009,0,21,
1526,SBT4050,1,4,4.19487,0,0,21,
1526,SBT4050,1,4,4.19332,0,0,21,
1526,SBT4050,1,4,4.19166,0,0,20.9,
1526,SBT4050,1,4,4.19043,0,0,20.9,
1526,SBT4050,1,4,4.189176,0,0,21,
1526,SBT4050,1,4,4.188948,0,0,20.9,
1526,SBT4050,1,4,4.18777,0,0,20.9,
1526,SBT4050,1,4,4.18671,0,0,20.9,
1526,SBT4050,1,4,4.186012,0,0,20.9,
1526,SBT4050,1,4,4.18513,0,0,20.9,
1526,SBT4050,1,4,4.1846,0,0,20.9,
1526,SBT4050,1,4,4.1839,0,0,20.9,
1526,SBT4050,1,4,4.18287,0,0,20.9,
1526,SBT4050,1,4,4.18201,0,0,20.9,
1526,SBT4050,1,4,4.182158,0,0,20.9,
1526,SBT4050,1,4,4.18136,0,0,20.9,
1526,SBT4050,1,4,4.18085,0,0,20.9,
1526,SBT4050,1,4,4.18068,0,0,20.9,
1526,SBT4050,1,4,4.17989,0,0,20.9,
1526,SBT4050,1,4,4.17941,0,0,20.9,
1526,SBT4050,1,4,4.178856,0,0,20.9,
1526,SBT4050,1,4,4.178234,0,0,20.9,
1526,SBT4050,1,4,4.178,0,0,20.9,
1526,SBT4050,1,4,4.17797,0,0,20.9,
1526,SBT4050,1,4,4.17727,0,0,20.9,
1526,SBT4050,1,4,4.176856,0,0,20.9,
1526,SBT4050,1,4,4.176958,0,0,20.9,
1526,SBT4050,1,4,4.17628,0,0,20.9,
1526,SBT4050,1,4,4.1761,0,0,20.9,
1526,SBT4050,1,4,4.17536,0,0,20.9,
1526,SBT4050,1,4,4.17506,0,0,20.9,
1526,SBT4050,1,4,4.17482,0,0,20.9,
1526,SBT4050,1,4,4.17453,0,0,20.9,
1526,SBT4050,1,4,4.17435,0,0,20.9,
1526,SBT4050,1,4,4.17385,0,0,20.9,
1526,SBT4050,1,4,4.1738,0,0,20.9,
1526,SBT4050,1,4,4.17351,0,0,20.9,
1526,SBT4050,1,4,4.1731,0,0,20.9,
1526,SBT4050,1,4,4.17266,0,0,20.9,
1526,SBT4050,1,4,4.172268,0,0,20.9,
1526,SBT4050,1,4,4.17236,0,0,20.9,
1526,SBT4050,1,4,4.172018,0,0,20.9,
1526,SBT4050,1,4,4.17155,0,0,20.9,
1526,SBT4050,1,4,4.17113,0,0,20.9,
1526,SBT4050,1,4,4.170966,0,0,20.9,
1526,SBT4050,1,4,4.17094,0,0,20.9,
1526,SBT4050,1,4,4.17063,0,0,20.9,
1526,SBT4050,1,4,4.17075,0,0,20.9,
1526,SBT4050,1,4,4.16988,0,0,20.9,
1526,SBT4050,1,4,4.16988,0,0,20.9,
1526,SBT4050,1,4,4.16992,0,0,20.9,
1526,SBT4050,1,4,4.16987,0,0,20.9,
1526,SBT4050,1,4,4.16938,0,0,20.9,
1526,SBT4050,1,4,4.1693,0,0,21,
1526,SBT4050,1,4,4.168874,0,0,20.9,
1526,SBT4050,1,4,4.16875,0,0,20.9,
1526,SBT4050,1,4,4.1686,0,0,20.9,
1526,SBT4050,1,4,4.16882,0,0,20.9,
1526,SBT4050,1,4,4.16813,0,0,20.9,
1526,SBT4050,1,4,4.16816,0,0,20.9,
1526,SBT4050,1,4,4.16796,0,0,21,
1526,SBT4050,1,4,4.16776,0,0,20.9,
1526,SBT4050,1,4,4.16761,0,0,21,
1526,SBT4050,1,4,4.16747,0,0,20.9,
1526,SBT4050,1,4,4.16767,0,0,21,
1526,SBT4050,1,4,4.16685,0,0,20.9,
1526,SBT4050,1,4,4.16721,0,0,20.9,
1526,SBT4050,1,4,4.166934,0,0,20.9,
1526,SBT4050,1,4,4.16683,0,0,20.9,
1526,SBT4050,1,4,4.16634,0,0,20.9,
1526,SBT4050,1,4,4.1663,0,0,20.9,
1526,SBT4050,1,4,4.16597,0,0,20.9,
1526,SBT4050,1,4,4.16617,0,0,20.9,
1526,SBT4050,1,4,4.16589,0,0,20.9,
1526,SBT4050,1,4,4.16577,0,0,20.9,
1526,SBT4050,1,4,4.16561,0,0,20.9,
1526,SBT4050,1,4,4.16557,0,0,20.9,
1526,SBT4050,1,4,4.16543,0,0,20.9,
1526,SBT4050,1,4,4.16506,0,0,20.9,
1526,SBT4050,1,4,4.16511,0,0,20.9,
1526,SBT4050,1,4,4.16499,0,0,20.8,
1526,SBT4050,1,4,4.16515,0,0,20.9,
1526,SBT4050,1,4,4.1647,0,0,20.8,
1526,SBT4050,1,4,4.16463,0,0,20.8,
1526,SBT4050,1,4,4.16479,0,0,20.8,
1526,SBT4050,1,4,4.16435,0,0,20.8,
1526,SBT4050,1,4,4.1644,0,0,20.8,
1526,SBT4050,1,4,4.16411,0,0,20.8,
1526,SBT4050,1,4,4.16439,0,0,20.8,
1526,SBT4050,1,4,4.16402,0,0,20.8,
1526,SBT4050,1,4,4.16377,0,0,20.9,
1526,SBT4050,1,4,4.16388,0,0,20.8,
1526,SBT4050,1,4,3.78242,-9.999,60.733,21.1,
1526,SBT4050,1,4,3.69353,-10,169.06,22.4,
1526,SBT4050,1,4,3.64753,-9.998,277.388,23.5,
1526,SBT4050,1,4,3.6094,-10,385.717,24.6,
1526,SBT4050,1,4,3.57075,-10,494.045,25.3,
1526,SBT4050,1,4,3.53304,-10,602.374,26,
1526,SBT4050,1,4,3.494252,-9.999,710.702,26.6,
1526,SBT4050,1,4,3.45574,-10.001,819.03,26.9,
1526,SBT4050,1,4,3.41814,-9.999,927.358,27.3,
1526,SBT4050,1,4,3.3824,-10,1035.686,27.6,
1526,SBT4050,1,4,3.34777,-9.999,1144.014,27.8,
1526,SBT4050,1,4,3.313954,-10,1252.343,28.1,
1526,SBT4050,1,4,3.2795,-10,1360.67,28.3,
1526,SBT4050,1,4,3.243104,-9.999,1468.997,28.5,
1526,SBT4050,1,4,3.20411,-10,1577.324,28.7,
1526,SBT4050,1,4,3.16091,-9.998,1685.65,28.9,
1526,SBT4050,1,4,3.10993,-9.999,1793.98,29.1,
1526,SBT4050,1,4,3.04655,-9.999,1902.308,29.6,
1526,SBT4050,1,4,2.95534,-9.999,2010.636,29.9,
1526,SBT4050,1,4,2.80326,-10,2118.964,30.6,
1526,SBT4050,1,4,2.53163,-9.999,2227.293,31.6,
1526,SBT4050,1,4,3.09406,0,2236.134,30.9,
1526,SBT4050,1,4,3.121231,0,2236.134,28.9,
1526,SBT4050,1,4,3.132958,0,2236.134,27.2,
1526,SBT4050,1,4,3.14049,0,2236.134,25.8,
1526,SBT4050,1,4,3.14541,0,2236.134,24.9,
1526,SBT4050,1,4,3.14947,0,2236.134,24,
1526,SBT4050,1,4,3.15255,0,2236.134,23.5,
1526,SBT4050,1,4,3.15498,0,2236.134,22.9,
1526,SBT4050,1,4,3.1574,0,2236.134,22.6,
1526,SBT4050,1,4,3.1591,0,2236.134,22.2,
1526,SBT4050,1,4,3.16078,0,2236.134,22,
1526,SBT4050,1,4,3.16225,0,2236.134,21.8,
1526,SBT4050,1,4,3.16407,0,2236.134,21.6,
1526,SBT4050,1,4,3.16508,0,2236.134,21.5,
1526,SBT4050,1,4,3.16635,0,2236.134,21.4,
1526,SBT4050,1,4,3.16731,0,2236.134,21.3,
1526,SBT4050,1,4,3.16861,0,2236.134,21.2,
1526,SBT4050,1,4,3.16942,0,2236.134,21.2,
1526,SBT4050,1,4,3.17019,0,2236.134,21.2,
1526,SBT4050,1,4,3.17108,0,2236.134,21.1,
1526,SBT4050,1,4,3.17187,0,2236.134,21.1,
1526,SBT4050,1,4,3.17272,0,2236.134,21.1,
1526,SBT4050,1,4,3.17386,0,2236.134,21.1,
1526,SBT4050,1,4,3.49358,4,2236.134,21.1,
1526,SBT4050,1,4,3.57713,4,2236.134,21.3,
1526,SBT4050,1,4,3.61167,4,2236.134,21.6,
1526,SBT4050,1,4,3.62768,4,2236.134,21.9,
1526,SBT4050,1,4,3.64389,4.0003,2236.134,22.1,
1526,SBT4050,1,4,3.6603,4.0002,2236.134,22.3,
1526,SBT4050,1,4,3.67622,3.9997,2236.134,22.5,
1526,SBT4050,1,4,3.69116,3.9991,2236.134,22.6,
1526,SBT4050,1,4,3.70644,4.0005,2236.134,22.7,
1526,SBT4050,1,4,3.7216,4.0002,2236.134,22.8,
1526,SBT4050,1,4,3.73545,3.9991,2236.134,22.9,
1526,SBT4050,1,4,3.74693,3.9996,2236.134,22.9,
1526,SBT4050,1,4,3.75671,4.0001,2236.134,23,
1526,SBT4050,1,4,3.76664,3.9996,2236.134,23,
1526,SBT4050,1,4,3.77751,4.0004,2236.134,23.1,
1526,SBT4050,1,4,3.78843,3.9996,2236.134,23.1,
1526,SBT4050,1,4,3.79972,3.9996,2236.134,23.1,
1526,SBT4050,1,4,3.81233,3.9999,2236.134,23.2,
1526,SBT4050,1,4,3.824726,4.0002,2236.134,23.2,
1526,SBT4050,1,4,3.837008,4,2236.134,23.3,
1526,SBT4050,1,4,3.85042,4,2236.134,23.4,
1526,SBT4050,1,4,3.86427,3.9998,2236.134,23.4,
1526,SBT4050,1,4,3.87897,3.9998,2236.134,23.5,
1526,SBT4050,1,4,3.8946,4.0003,2236.134,23.5,
1526,SBT4050,1,4,3.90208,4.0003,2236.134,,